File: input/CHRONOA_STABILITY_#1_#1.DTA
EXPLAIN
TAG	CHRONOA
TITLE	LABEL	Chronoamperometry Scan	Test Identifier
DATE	LABEL	17.7.2024	Date
TIME	LABEL	11:10:33	Time
NOTES	NOTES	1	Notes...

PSTAT	PSTAT	IFC1010-34090	Potentiostat
VPRESTEP	POTEN	-4.00000E-001	F	Pre-step Voltage (V)
TPRESTEP	QUANT	3.00000E+001	Pre-step Delay Time (s)
VSTEP1	POTEN	-4.00000E-001	F	Step 1 Voltage (V)
TSTEP1	QUANT	3.00000E+001	Step 1 Time (s)
VSTEP2	POTEN	-4.00000E-001	F	Step 2 Voltage (V)
TSTEP2	QUANT	7.20000E+003	Step 2 Time (s)
SAMPLETIME	QUANT	4.99999E+000	Sample Period (s)
DECIMATE	TOGGLE	F	Decimate
ILIMIT	QUANT	6.00000E+001	Limit I (mA/cm^2)
IMODE	SELECTOR	0	I/E Range Mode
IRANGE	QUANT	3.00000E+001	Max Current (mA)
EQDELAY	QUANT	0.00000E+000	Equil. Time (s)
SAMPLINGMODE	SELECTOR	1	Sampling Mode
AREA	QUANT	1.00000E+000	Sample Area (cm^2)
IRCOMP	SELECTOR	0	IRComp
PFCOR	QUANT	5.00000E+001	PF Corr. (ohm)
ELECTRODETYPE	SELECTOR	0	Electrode Type
STRIPPING	TOGGLE	F	Used for Stripping
SEQUENCER	TOGGLE	TRUE	Run as Sequence
PSTATMODEL	IQUANT	64	Pstat Model
PSTATSECTION	LABEL	IFC1010-34090	Pstat Section
PSTATSERIALNO	LABEL	34090	Pstat Serial Number
CTRLMODE	IQUANT	1	Control Mode
ELECTROMETER	IQUANT	0	RE=0 or CS=1
IESTAB	IQUANT	0	I/E Stability
CASPEED	IQUANT	4	Control Amp Speed
CONVENTION	IQUANT	1	Current Convention
ICHRANGE	IQUANT	2	Ich Range
ICHRANGEMODE	TOGGLE	T	Ich Auto Range
ICHOFFSETENABLE	TOGGLE	F	Ich Offset Enable
ICHOFFSET	QUANT	0	Ich Offset (V)
ICHFILTER	IQUANT	4	Ich Filter
VCHRANGE	IQUANT	2	Vch Range
VCHRANGEMODE	TOGGLE	F	Vch Auto Range
VCHOFFSETENABLE	TOGGLE	F	Vch Offset Enable
VCHOFFSET	QUANT	0	Vch Offset (V)
VCHFILTER	IQUANT	4	Vch Filter
IERANGELOWERLIMIT	IQUANT	4	I/E Range Lower Limit
IERANGEMODE	TOGGLE	T	I/E AutoRange
IERANGE	IQUANT	11	I/E Range
ACHSELECT	IQUANT	0	Ach Select
ACHRANGE	IQUANT	2	Ach Range
ACHOFFSETENABLE	TOGGLE	F	Ach Offset Enable
ACHOFFSET	QUANT	0	Ach Offset (V)
ACHFILTER	IQUANT	1	Ach Filter
SENSECABLEID	IQUANT	13	Sense Cable ID
PWRCABLEID	IQUANT	13	Power Cable ID
DCCALDATE	LABEL	1/30/2024	DC Calibration Date
ACCALDATE	LABEL	1/8/2024	AC Calibration Date
FRAMEWORKVERSION	LABEL	7.10.3	Framework Version
INSTRUMENTVERSION	LABEL	4.91	Instrument Version
COMMVERSION	LABEL	3.10	Communications Version
CPUPLDVERSION	LABEL	2.22	CPU PLD Version
CTRLPLDVERSION	LABEL	0.00	CTRL PLD Version
PSTATPLDVERSION	LABEL	0.00	PSTAT PLD Version
CURVE	TABLE	1452
	Pt	T	Vf	Im	Vu	Sig	Ach	IERange	Over	Temp
	#	s	V vs. Ref.	A	V	V	V	#	bits	deg C
	0	-25	-3.99870E-001	-5.38268E-003	0.00000E+000	-3.99973E-001	0.00000E+000	11	...........	1467.25
	3	-10	-3.99858E-001	-5.40639E-003	0.00000E+000	-3.99973E-001	0.00000E+000	10	...........	1467.25
	6	5	-3.99858E-001	-5.43309E-003	0.00000E+000	-3.99973E-001	0.00000E+000	10	...........	1467.25
	9	20	-3.99855E-001	-5.41916E-003	0.00000E+000	-3.99973E-001	0.00000E+000	10	...........	1467.26
	12	35	-3.99854E-001	-5.35804E-003	0.00000E+000	-3.99973E-001	0.00000E+000	10	...........	1467.25
	15	50	-3.99856E-001	-5.39626E-003	0.00000E+000	-3.99973E-001	0.00000E+000	10	...........	1467.25
	18	65	-3.99857E-001	-5.42931E-003	0.00000E+000	-3.99973E-001	0.00000E+000	10	...........	1467.25
	21	80	-3.99861E-001	-5.39469E-003	0.00000E+000	-3.99973E-001	0.00000E+000	10	...........	1467.25
	24	95	-3.99856E-001	-5.45665E-003	0.00000E+000	-3.99973E-001	0.00000E+000	10	...........	1467.25
	27	110	-3.99855E-001	-5.41616E-003	0.00000E+000	-3.99973E-001	0.00000E+000	10	...........	1467.25
	30	125	-3.99855E-001	-5.40351E-003	0.00000E+000	-3.99973E-001	0.00000E+000	10	...........	1467.25
	33	140	-3.99856E-001	-5.34774E-003	0.00000E+000	-3.99973E-001	0.00000E+000	10	...........	1467.25
	36	155	-3.99851E-001	-5.48756E-003	0.00000E+000	-3.99973E-001	0.00000E+000	10	...........	1467.25
	39	170	-3.99853E-001	-5.44390E-003	0.00000E+000	-3.99973E-001	0.00000E+000	10	...........	1467.25
	42	185	-3.99855E-001	-5.45604E-003	0.00000E+000	-3.99973E-001	0.00000E+000	10	...........	1467.25
	45	200	-3.99857E-001	-5.34680E-003	0.00000E+000	-3.99973E-001	0.00000E+000	10	...........	1467.25
	48	215	-3.99853E-001	-5.40506E-003	0.00000E+000	-3.99973E-001	0.00000E+000	10	...........	1467.25
	51	230	-3.99857E-001	-5.49049E-003	0.00000E+000	-3.99973E-001	0.00000E+000	10	...........	1467.25
	54	245	-3.99856E-001	-5.44684E-003	0.00000E+000	-3.99973E-001	0.00000E+000	10	...........	1467.25
	57	260	-3.99854E-001	-5.40019E-003	0.00000E+000	-3.99973E-001	0.00000E+000	10	...........	1467.25
	60	275	-3.99854E-001	-5.34770E-003	0.00000E+000	-3.99973E-001	0.00000E+000	10	...........	1467.25
	63	290	-3.99855E-001	-5.43546E-003	0.00000E+000	-3.99973E-001	0.00000E+000	10	...........	1467.25
	66	305	-3.99855E-001	-5.39069E-003	0.00000E+000	-3.99973E-001	0.00000E+000	10	...........	1467.25
	69	320	-3.99859E-001	-5.37155E-003	0.00000E+000	-3.99973E-001	0.00000E+000	10	...........	1467.25
	72	335	-3.99858E-001	-5.43313E-003	0.00000E+000	-3.99973E-001	0.00000E+000	10	...........	1467.25
	75	350	-3.99856E-001	-5.41895E-003	0.00000E+000	-3.99973E-001	0.00000E+000	10	...........	1467.25
	78	365	-3.99855E-001	-5.38360E-003	0.00000E+000	-3.99973E-001	0.00000E+000	10	...........	1467.25
	81	380	-3.99856E-001	-5.39733E-003	0.00000E+000	-3.99973E-001	0.00000E+000	10	...........	1467.25
	84	395	-3.99859E-001	-5.40159E-003	0.00000E+000	-3.99973E-001	0.00000E+000	10	...........	1467.25
	87	410	-3.99858E-001	-5.31054E-003	0.00000E+000	-3.99973E-001	0.00000E+000	10	...........	1467.25
	90	425	-3.99855E-001	-5.43557E-003	0.00000E+000	-3.99973E-001	0.00000E+000	10	...........	1467.25
	93	440	-3.99854E-001	-5.37099E-003	0.00000E+000	-3.99973E-001	0.00000E+000	10	...........	1467.25
	96	455	-3.99853E-001	-5.44279E-003	0.00000E+000	-3.99973E-001	0.00000E+000	10	...........	1467.25
	99	470	-3.99855E-001	-5.31982E-003	0.00000E+000	-3.99973E-001	0.00000E+000	10	...........	1467.25
	102	485	-3.99856E-001	-5.46866E-003	0.00000E+000	-3.99973E-001	0.00000E+000	10	...........	1467.25
	105	500	-3.99856E-001	-5.36945E-003	0.00000E+000	-3.99973E-001	0.00000E+000	10	...........	1467.25
	108	515	-3.99857E-001	-5.40162E-003	0.00000E+000	-3.99973E-001	0.00000E+000	10	...........	1467.25
	111	530	-3.99858E-001	-5.37184E-003	0.00000E+000	-3.99973E-001	0.00000E+000	10	...........	1467.25
	114	545	-3.99855E-001	-5.43727E-003	0.00000E+000	-3.99973E-001	0.00000E+000	10	...........	1467.25
	117	560	-3.99855E-001	-5.33428E-003	0.00000E+000	-3.99973E-001	0.00000E+000	10	...........	1467.25
	120	575	-3.99853E-001	-5.43415E-003	0.00000E+000	-3.99973E-001	0.00000E+000	10	...........	1467.25
	123	590	-3.99856E-001	-5.34993E-003	0.00000E+000	-3.99973E-001	0.00000E+000	10	...........	1467.25
	126	605	-3.99857E-001	-5.22584E-003	0.00000E+000	-3.99973E-001	0.00000E+000	10	...........	1467.25
	129	620	-3.99855E-001	-5.40465E-003	0.00000E+000	-3.99973E-001	0.00000E+000	10	...........	1467.25
	132	635	-3.99850E-001	-5.32792E-003	0.00000E+000	-3.99973E-001	0.00000E+000	10	...........	1467.25
	135	650	-3.99859E-001	-5.40346E-003	0.00000E+000	-3.99973E-001	0.00000E+000	10	...........	1467.26
	138	665	-3.99854E-001	-5.32680E-003	0.00000E+000	-3.99973E-001	0.00000E+000	10	...........	1467.33
	141	680	-3.99854E-001	-5.36673E-003	0.00000E+000	-3.99973E-001	0.00000E+000	10	...........	1467.25
	144	695	-3.99854E-001	-5.39394E-003	0.00000E+000	-3.99973E-001	0.00000E+000	10	...........	1467.25
	147	710	-3.99852E-001	-5.33220E-003	0.00000E+000	-3.99973E-001	0.00000E+000	10	...........	1467.25
	150	725	-3.99853E-001	-5.39831E-003	0.00000E+000	-3.99973E-001	0.00000E+000	10	...........	1467.25
	153	740	-3.99858E-001	-5.37986E-003	0.00000E+000	-3.99973E-001	0.00000E+000	10	...........	1467.25
	156	755	-3.99854E-001	-5.34119E-003	0.00000E+000	-3.99973E-001	0.00000E+000	10	...........	1467.33
	159	770	-3.99856E-001	-5.24417E-003	0.00000E+000	-3.99973E-001	0.00000E+000	10	...........	1467.26
	162	785	-3.99856E-001	-5.39642E-003	0.00000E+000	-3.99973E-001	0.00000E+000	10	...........	1467.26
	165	800	-3.99857E-001	-5.43752E-003	0.00000E+000	-3.99973E-001	0.00000E+000	10	...........	1467.33
	168	815	-3.99855E-001	-5.43652E-003	0.00000E+000	-3.99973E-001	0.00000E+000	10	...........	1467.26
	171	830	-3.99853E-001	-5.43642E-003	0.00000E+000	-3.99973E-001	0.00000E+000	10	...........	1467.25
	174	845	-3.99852E-001	-5.31676E-003	0.00000E+000	-3.99973E-001	0.00000E+000	10	...........	1467.34
	177	860	-3.99856E-001	-5.28273E-003	0.00000E+000	-3.99973E-001	0.00000E+000	10	...........	1467.25
	180	875	-3.99856E-001	-5.34935E-003	0.00000E+000	-3.99973E-001	0.00000E+000	10	...........	1467.26
	183	890	-3.99853E-001	-5.36496E-003	0.00000E+000	-3.99973E-001	0.00000E+000	10	...........	1467.34
	186	905	-3.99859E-001	-5.38507E-003	0.00000E+000	-3.99973E-001	0.00000E+000	10	...........	1467.34
	189	920	-3.99855E-001	-5.30582E-003	0.00000E+000	-3.99973E-001	0.00000E+000	10	...........	1467.34
	192	935	-3.99856E-001	-5.19286E-003	0.00000E+000	-3.99973E-001	0.00000E+000	10	...........	1467.25
	195	950	-3.99855E-001	-5.27092E-003	0.00000E+000	-3.99973E-001	0.00000E+000	10	...........	1467.26
	198	965	-3.99863E-001	-5.27717E-003	0.00000E+000	-3.99973E-001	0.00000E+000	10	...........	1467.26
	201	980	-3.99854E-001	-5.37438E-003	0.00000E+000	-3.99973E-001	0.00000E+000	10	...........	1467.33
	204	995	-3.99851E-001	-5.41661E-003	0.00000E+000	-3.99973E-001	0.00000E+000	10	...........	1467.25
	207	1010	-3.99851E-001	-5.37618E-003	0.00000E+000	-3.99973E-001	0.00000E+000	10	...........	1467.34
	210	1025	-3.99853E-001	-5.33031E-003	0.00000E+000	-3.99973E-001	0.00000E+000	10	...........	1467.33
	213	1040	-3.99849E-001	-5.39329E-003	0.00000E+000	-3.99973E-001	0.00000E+000	10	...........	1467.26
	216	1055	-3.99854E-001	-5.36866E-003	0.00000E+000	-3.99973E-001	0.00000E+000	10	...........	1467.34
	219	1070	-3.99853E-001	-5.37372E-003	0.00000E+000	-3.99973E-001	0.00000E+000	10	...........	1467.33
	222	1085	-3.99849E-001	-5.30330E-003	0.00000E+000	-3.99973E-001	0.00000E+000	10	...........	1467.34
	225	1100	-3.99853E-001	-5.40482E-003	0.00000E+000	-3.99973E-001	0.00000E+000	10	...........	1467.34
	228	1115	-3.99854E-001	-5.25478E-003	0.00000E+000	-3.99973E-001	0.00000E+000	10	...........	1467.34
	231	1130	-3.99853E-001	-5.16180E-003	0.00000E+000	-3.99973E-001	0.00000E+000	10	...........	1467.34
	234	1145	-3.99849E-001	-5.27422E-003	0.00000E+000	-3.99973E-001	0.00000E+000	10	...........	1467.34
	237	1160	-3.99854E-001	-5.21053E-003	0.00000E+000	-3.99973E-001	0.00000E+000	10	...........	1467.34
	240	1175	-3.99855E-001	-5.32778E-003	0.00000E+000	-3.99973E-001	0.00000E+000	10	...........	1467.34
	243	1190	-3.99855E-001	-5.26386E-003	0.00000E+000	-3.99973E-001	0.00000E+000	10	...........	1467.34
	246	1205	-3.99855E-001	-5.32972E-003	0.00000E+000	-3.99973E-001	0.00000E+000	10	...........	1467.34
	249	1220	-3.99855E-001	-5.19376E-003	0.00000E+000	-3.99973E-001	0.00000E+000	10	...........	1467.34
	252	1235	-3.99852E-001	-5.25411E-003	0.00000E+000	-3.99973E-001	0.00000E+000	10	...........	1467.34
	255	1250	-3.99851E-001	-5.41814E-003	0.00000E+000	-3.99973E-001	0.00000E+000	10	...........	1467.34
	258	1265	-3.99853E-001	-5.26841E-003	0.00000E+000	-3.99973E-001	0.00000E+000	10	...........	1467.34
	261	1280	-3.99853E-001	-5.28563E-003	0.00000E+000	-3.99973E-001	0.00000E+000	10	...........	1467.34
	264	1295	-3.99852E-001	-5.24013E-003	0.00000E+000	-3.99973E-001	0.00000E+000	10	...........	1467.34
	267	1310	-3.99851E-001	-5.11261E-003	0.00000E+000	-3.99973E-001	0.00000E+000	10	...........	1467.34
	270	1325	-3.99853E-001	-5.35197E-003	0.00000E+000	-3.99973E-001	0.00000E+000	10	...........	1467.34
	273	1340	-3.99853E-001	-5.32789E-003	0.00000E+000	-3.99973E-001	0.00000E+000	10	...........	1467.34
	276	1355	-3.99854E-001	-5.39233E-003	0.00000E+000	-3.99973E-001	0.00000E+000	10	...........	1467.34
	279	1370	-3.99856E-001	-5.26639E-003	0.00000E+000	-3.99973E-001	0.00000E+000	10	...........	1467.34
	282	1385	-3.99851E-001	-5.35201E-003	0.00000E+000	-3.99973E-001	0.00000E+000	10	...........	1467.34
	285	1400	-3.99853E-001	-5.31880E-003	0.00000E+000	-3.99973E-001	0.00000E+000	10	...........	1467.34
	288	1415	-3.99853E-001	-5.33637E-003	0.00000E+000	-3.99973E-001	0.00000E+000	10	...........	1467.34
	291	1430	-3.99852E-001	-5.32370E-003	0.00000E+000	-3.99973E-001	0.00000E+000	10	...........	1467.34
	294	1445	-3.99853E-001	-5.34775E-003	0.00000E+000	-3.99973E-001	0.00000E+000	10	...........	1467.34
	297	1460	-3.99852E-001	-5.41475E-003	0.00000E+000	-3.99973E-001	0.00000E+000	10	...........	1467.34
	300	1475	-3.99855E-001	-5.39528E-003	0.00000E+000	-3.99973E-001	0.00000E+000	10	...........	1467.34
	303	1490	-3.99850E-001	-5.41081E-003	0.00000E+000	-3.99973E-001	0.00000E+000	10	...........	1467.34
	306	1505	-3.99854E-001	-5.29362E-003	0.00000E+000	-3.99973E-001	0.00000E+000	10	...........	1467.34
	309	1520	-3.99855E-001	-5.34075E-003	0.00000E+000	-3.99973E-001	0.00000E+000	10	...........	1467.34
	312	1535	-3.99851E-001	-5.30277E-003	0.00000E+000	-3.99973E-001	0.00000E+000	10	...........	1467.34
	315	1550	-3.99857E-001	-5.35348E-003	0.00000E+000	-3.99973E-001	0.00000E+000	10	...........	1467.34
	318	1565	-3.99850E-001	-5.31251E-003	0.00000E+000	-3.99973E-001	0.00000E+000	10	...........	1467.34
	321	1580	-3.99851E-001	-5.37857E-003	0.00000E+000	-3.99973E-001	0.00000E+000	10	...........	1467.34
	324	1595	-3.99852E-001	-5.35469E-003	0.00000E+000	-3.99973E-001	0.00000E+000	10	...........	1467.34
	327	1610	-3.99854E-001	-5.34271E-003	0.00000E+000	-3.99973E-001	0.00000E+000	10	...........	1467.34
	330	1625	-3.99854E-001	-5.40271E-003	0.00000E+000	-3.99973E-001	0.00000E+000	10	...........	1467.34
	333	1640	-3.99849E-001	-5.39007E-003	0.00000E+000	-3.99973E-001	0.00000E+000	10	...........	1467.34
	336	1655	-3.99854E-001	-5.34315E-003	0.00000E+000	-3.99973E-001	0.00000E+000	10	...........	1467.34
	339	1670	-3.99854E-001	-5.31586E-003	0.00000E+000	-3.99973E-001	0.00000E+000	10	...........	1467.34
	342	1685	-3.99851E-001	-5.38427E-003	0.00000E+000	-3.99973E-001	0.00000E+000	10	...........	1467.34
	345	1700	-3.99852E-001	-5.31284E-003	0.00000E+000	-3.99973E-001	0.00000E+000	10	...........	1467.34
	348	1715	-3.99856E-001	-5.37754E-003	0.00000E+000	-3.99973E-001	0.00000E+000	10	...........	1467.34
	351	1730	-3.99855E-001	-5.36833E-003	0.00000E+000	-3.99973E-001	0.00000E+000	10	...........	1467.34
	354	1745	-3.99853E-001	-5.35038E-003	0.00000E+000	-3.99973E-001	0.00000E+000	10	...........	1467.34
	357	1760	-3.99852E-001	-5.36664E-003	0.00000E+000	-3.99973E-001	0.00000E+000	10	...........	1467.34
	360	1775	-3.99855E-001	-5.33708E-003	0.00000E+000	-3.99973E-001	0.00000E+000	10	...........	1467.34
	363	1790	-3.99854E-001	-5.28494E-003	0.00000E+000	-3.99973E-001	0.00000E+000	10	...........	1467.34
	366	1805	-3.99857E-001	-5.33503E-003	0.00000E+000	-3.99973E-001	0.00000E+000	10	...........	1467.34
	369	1820	-3.99857E-001	-5.33327E-003	0.00000E+000	-3.99973E-001	0.00000E+000	10	...........	1467.34
	372	1835	-3.99855E-001	-5.30932E-003	0.00000E+000	-3.99973E-001	0.00000E+000	10	...........	1467.34
	375	1850	-3.99852E-001	-5.32231E-003	0.00000E+000	-3.99973E-001	0.00000E+000	10	...........	1467.34
	378	1865	-3.99849E-001	-5.31580E-003	0.00000E+000	-3.99973E-001	0.00000E+000	10	...........	1467.34
	381	1880	-3.99854E-001	-5.36791E-003	0.00000E+000	-3.99973E-001	0.00000E+000	10	...........	1467.34
	384	1895	-3.99854E-001	-5.39261E-003	0.00000E+000	-3.99973E-001	0.00000E+000	10	...........	1467.34
	387	1910	-3.99853E-001	-5.38252E-003	0.00000E+000	-3.99973E-001	0.00000E+000	10	...........	1467.34
	390	1925	-3.99850E-001	-5.32063E-003	0.00000E+000	-3.99973E-001	0.00000E+000	10	...........	1467.34
	393	1940	-3.99853E-001	-5.36291E-003	0.00000E+000	-3.99973E-001	0.00000E+000	10	...........	1467.34
	396	1955	-3.99853E-001	-5.31441E-003	0.00000E+000	-3.99973E-001	0.00000E+000	10	...........	1467.34
	399	1970	-3.99849E-001	-5.41082E-003	0.00000E+000	-3.99973E-001	0.00000E+000	10	...........	1467.34
	402	1985	-3.99852E-001	-5.34300E-003	0.00000E+000	-3.99973E-001	0.00000E+000	10	...........	1467.34
	405	2000	-3.99852E-001	-5.31856E-003	0.00000E+000	-3.99973E-001	0.00000E+000	10	...........	1467.34
	408	2015	-3.99848E-001	-5.32402E-003	0.00000E+000	-3.99973E-001	0.00000E+000	10	...........	1467.34
	411	2030	-3.99852E-001	-5.32981E-003	0.00000E+000	-3.99973E-001	0.00000E+000	10	...........	1467.34
	414	2045	-3.99850E-001	-5.28301E-003	0.00000E+000	-3.99973E-001	0.00000E+000	10	...........	1467.34
	417	2060	-3.99852E-001	-5.42117E-003	0.00000E+000	-3.99973E-001	0.00000E+000	10	...........	1467.34
	420	2075	-3.99851E-001	-5.33538E-003	0.00000E+000	-3.99973E-001	0.00000E+000	10	...........	1467.34
	423	2090	-3.99852E-001	-5.37786E-003	0.00000E+000	-3.99973E-001	0.00000E+000	10	...........	1467.42
	426	2105	-3.99848E-001	-5.31292E-003	0.00000E+000	-3.99973E-001	0.00000E+000	10	...........	1467.34
	429	2120	-3.99854E-001	-5.33078E-003	0.00000E+000	-3.99973E-001	0.00000E+000	10	...........	1467.42
	432	2135	-3.99852E-001	-5.37367E-003	0.00000E+000	-3.99973E-001	0.00000E+000	10	...........	1467.34
	435	2150	-3.99852E-001	-5.36268E-003	0.00000E+000	-3.99973E-001	0.00000E+000	10	...........	1467.34
	438	2165	-3.99851E-001	-5.37667E-003	0.00000E+000	-3.99973E-001	0.00000E+000	10	...........	1467.34
	441	2180	-3.99849E-001	-5.38667E-003	0.00000E+000	-3.99973E-001	0.00000E+000	10	...........	1467.34
	444	2195	-3.99853E-001	-5.35351E-003	0.00000E+000	-3.99973E-001	0.00000E+000	10	...........	1467.35
	447	2210	-3.99845E-001	-5.30529E-003	0.00000E+000	-3.99973E-001	0.00000E+000	10	...........	1467.35
	450	2225	-3.99855E-001	-5.20603E-003	0.00000E+000	-3.99973E-001	0.00000E+000	10	...........	1467.34
	453	2240	-3.99847E-001	-5.35294E-003	0.00000E+000	-3.99973E-001	0.00000E+000	10	...........	1467.35
	456	2255	-3.99849E-001	-5.27526E-003	0.00000E+000	-3.99973E-001	0.00000E+000	10	...........	1467.34
	459	2270	-3.99852E-001	-5.35053E-003	0.00000E+000	-3.99973E-001	0.00000E+000	10	...........	1467.35
	462	2285	-3.99854E-001	-5.28444E-003	0.00000E+000	-3.99973E-001	0.00000E+000	10	...........	1467.34
	465	2300	-3.99851E-001	-5.35607E-003	0.00000E+000	-3.99973E-001	0.00000E+000	10	...........	1467.34
	468	2315	-3.99854E-001	-5.37557E-003	0.00000E+000	-3.99973E-001	0.00000E+000	10	...........	1467.43
	471	2330	-3.99854E-001	-5.28827E-003	0.00000E+000	-3.99973E-001	0.00000E+000	10	...........	1467.34
	474	2345	-3.99853E-001	-5.34169E-003	0.00000E+000	-3.99973E-001	0.00000E+000	10	...........	1467.42
	477	2360	-3.99850E-001	-5.35716E-003	0.00000E+000	-3.99973E-001	0.00000E+000	10	...........	1467.43
	480	2375	-3.99848E-001	-5.36724E-003	0.00000E+000	-3.99973E-001	0.00000E+000	10	...........	1467.34
	483	2390	-3.99850E-001	-5.34172E-003	0.00000E+000	-3.99973E-001	0.00000E+000	10	...........	1467.42
	486	2405	-3.99853E-001	-5.38124E-003	0.00000E+000	-3.99973E-001	0.00000E+000	10	...........	1467.43
	489	2420	-3.99850E-001	-5.26170E-003	0.00000E+000	-3.99973E-001	0.00000E+000	10	...........	1467.42
	492	2435	-3.99848E-001	-5.29322E-003	0.00000E+000	-3.99973E-001	0.00000E+000	10	...........	1467.42
	495	2450	-3.99850E-001	-5.36596E-003	0.00000E+000	-3.99973E-001	0.00000E+000	10	...........	1467.34
	498	2465	-3.99850E-001	-5.35592E-003	0.00000E+000	-3.99973E-001	0.00000E+000	10	...........	1467.35
	501	2480	-3.99850E-001	-5.30938E-003	0.00000E+000	-3.99973E-001	0.00000E+000	10	...........	1467.43
	504	2495	-3.99855E-001	-5.35787E-003	0.00000E+000	-3.99973E-001	0.00000E+000	10	...........	1467.42
	507	2510	-3.99851E-001	-5.36316E-003	0.00000E+000	-3.99973E-001	0.00000E+000	10	...........	1467.43
	510	2525	-3.99850E-001	-5.33792E-003	0.00000E+000	-3.99973E-001	0.00000E+000	10	...........	1467.43
	513	2540	-3.99850E-001	-5.35184E-003	0.00000E+000	-3.99973E-001	0.00000E+000	10	...........	1467.43
	516	2555	-3.99847E-001	-5.38295E-003	0.00000E+000	-3.99973E-001	0.00000E+000	10	...........	1467.43
	519	2570	-3.99856E-001	-5.40339E-003	0.00000E+000	-3.99973E-001	0.00000E+000	10	...........	1467.43
	522	2585	-3.99851E-001	-5.26605E-003	0.00000E+000	-3.99973E-001	0.00000E+000	10	...........	1467.43
	525	2600	-3.99847E-001	-5.20741E-003	0.00000E+000	-3.99973E-001	0.00000E+000	10	...........	1467.43
	528	2615	-3.99855E-001	-5.33979E-003	0.00000E+000	-3.99973E-001	0.00000E+000	10	...........	1467.43
	531	2630	-3.99849E-001	-5.36302E-003	0.00000E+000	-3.99973E-001	0.00000E+000	10	...........	1467.43
	534	2645	-3.99848E-001	-5.31063E-003	0.00000E+000	-3.99973E-001	0.00000E+000	10	...........	1467.43
	537	2660	-3.99851E-001	-5.35622E-003	0.00000E+000	-3.99973E-001	0.00000E+000	10	...........	1467.43
	540	2675	-3.99854E-001	-5.30692E-003	0.00000E+000	-3.99973E-001	0.00000E+000	10	...........	1467.43
	543	2690	-3.99851E-001	-5.27832E-003	0.00000E+000	-3.99973E-001	0.00000E+000	10	...........	1467.43
	546	2705	-3.99848E-001	-5.25072E-003	0.00000E+000	-3.99973E-001	0.00000E+000	10	...........	1467.43
	549	2720	-3.99850E-001	-5.31485E-003	0.00000E+000	-3.99973E-001	0.00000E+000	10	...........	1467.43
	552	2735	-3.99853E-001	-5.19941E-003	0.00000E+000	-3.99973E-001	0.00000E+000	10	...........	1467.43
	555	2750	-3.99854E-001	-5.20629E-003	0.00000E+000	-3.99973E-001	0.00000E+000	10	...........	1467.43
	558	2765	-3.99846E-001	-5.20299E-003	0.00000E+000	-3.99973E-001	0.00000E+000	10	...........	1467.43
	561	2780	-3.99851E-001	-5.26323E-003	0.00000E+000	-3.99973E-001	0.00000E+000	10	...........	1467.43
	564	2795	-3.99852E-001	-5.08538E-003	0.00000E+000	-3.99973E-001	0.00000E+000	10	...........	1467.43
	567	2810	-3.99847E-001	-5.21082E-003	0.00000E+000	-3.99973E-001	0.00000E+000	10	...........	1467.43
	570	2825	-3.99847E-001	-5.22832E-003	0.00000E+000	-3.99973E-001	0.00000E+000	10	...........	1467.43
	573	2840	-3.99849E-001	-5.26539E-003	0.00000E+000	-3.99973E-001	0.00000E+000	10	...........	1467.43
	576	2855	-3.99845E-001	-5.27333E-003	0.00000E+000	-3.99973E-001	0.00000E+000	10	...........	1467.43
	579	2870	-3.99847E-001	-5.26868E-003	0.00000E+000	-3.99973E-001	0.00000E+000	10	...........	1467.43
	582	2885	-3.99849E-001	-5.26107E-003	0.00000E+000	-3.99973E-001	0.00000E+000	10	...........	1467.43
	585	2900	-3.99854E-001	-5.38930E-003	0.00000E+000	-3.99973E-001	0.00000E+000	10	...........	1467.43
	588	2915	-3.99851E-001	-5.43732E-003	0.00000E+000	-3.99973E-001	0.00000E+000	10	...........	1467.43
	591	2930	-3.99850E-001	-5.37185E-003	0.00000E+000	-3.99973E-001	0.00000E+000	10	...........	1467.43
	594	2945	-3.99850E-001	-5.44252E-003	0.00000E+000	-3.99973E-001	0.00000E+000	10	...........	1467.43
	597	2960	-3.99848E-001	-5.47327E-003	0.00000E+000	-3.99973E-001	0.00000E+000	10	...........	1467.43
	600	2975	-3.99849E-001	-5.36428E-003	0.00000E+000	-3.99973E-001	0.00000E+000	10	...........	1467.43
	603	2990	-3.99844E-001	-5.41655E-003	0.00000E+000	-3.99973E-001	0.00000E+000	10	...........	1467.43
	606	3005	-3.99849E-001	-5.33366E-003	0.00000E+000	-3.99973E-001	0.00000E+000	10	...........	1467.43
	609	3020	-3.99848E-001	-5.36629E-003	0.00000E+000	-3.99973E-001	0.00000E+000	10	...........	1467.43
	612	3035	-3.99853E-001	-5.29576E-003	0.00000E+000	-3.99973E-001	0.00000E+000	10	...........	1467.43
	615	3050	-3.99849E-001	-5.38003E-003	0.00000E+000	-3.99973E-001	0.00000E+000	10	...........	1467.43
	618	3065	-3.99847E-001	-5.42053E-003	0.00000E+000	-3.99973E-001	0.00000E+000	10	...........	1467.43
	621	3080	-3.99845E-001	-5.39871E-003	0.00000E+000	-3.99973E-001	0.00000E+000	10	...........	1467.43
	624	3095	-3.99843E-001	-5.38433E-003	0.00000E+000	-3.99973E-001	0.00000E+000	10	...........	1467.43
	627	3110	-3.99846E-001	-5.38643E-003	0.00000E+000	-3.99973E-001	0.00000E+000	10	...........	1467.43
	630	3125	-3.99847E-001	-5.40108E-003	0.00000E+000	-3.99973E-001	0.00000E+000	10	...........	1467.44
	633	3140	-3.99848E-001	-5.43614E-003	0.00000E+000	-3.99973E-001	0.00000E+000	10	...........	1467.43
	636	3155	-3.99843E-001	-5.40064E-003	0.00000E+000	-3.99973E-001	0.00000E+000	10	...........	1467.44
	639	3170	-3.99845E-001	-5.34054E-003	0.00000E+000	-3.99973E-001	0.00000E+000	10	...........	1467.43
	642	3185	-3.99849E-001	-5.42017E-003	0.00000E+000	-3.99973E-001	0.00000E+000	10	...........	1467.43
	645	3200	-3.99846E-001	-5.37974E-003	0.00000E+000	-3.99973E-001	0.00000E+000	10	...........	1467.51
	648	3215	-3.99845E-001	-5.39273E-003	0.00000E+000	-3.99973E-001	0.00000E+000	10	...........	1467.43
	651	3230	-3.99847E-001	-5.29797E-003	0.00000E+000	-3.99973E-001	0.00000E+000	10	...........	1467.43
	654	3245	-3.99853E-001	-5.38560E-003	0.00000E+000	-3.99973E-001	0.00000E+000	10	...........	1467.52
	657	3260	-3.99844E-001	-5.43385E-003	0.00000E+000	-3.99973E-001	0.00000E+000	10	...........	1467.51
	660	3275	-3.99852E-001	-5.25423E-003	0.00000E+000	-3.99973E-001	0.00000E+000	10	...........	1467.44
	663	3290	-3.99844E-001	-5.37343E-003	0.00000E+000	-3.99973E-001	0.00000E+000	10	...........	1467.52
	666	3305	-3.99848E-001	-5.39020E-003	0.00000E+000	-3.99973E-001	0.00000E+000	10	...........	1467.43
	669	3320	-3.99849E-001	-5.43343E-003	0.00000E+000	-3.99973E-001	0.00000E+000	10	...........	1467.51
	672	3335	-3.99848E-001	-5.32709E-003	0.00000E+000	-3.99973E-001	0.00000E+000	10	...........	1467.44
	675	3350	-3.99846E-001	-5.30450E-003	0.00000E+000	-3.99973E-001	0.00000E+000	10	...........	1467.43
	678	3365	-3.99847E-001	-5.25027E-003	0.00000E+000	-3.99973E-001	0.00000E+000	10	...........	1467.52
	681	3380	-3.99847E-001	-5.37929E-003	0.00000E+000	-3.99973E-001	0.00000E+000	10	...........	1467.51
	684	3395	-3.99847E-001	-5.20384E-003	0.00000E+000	-3.99973E-001	0.00000E+000	10	...........	1467.51
	687	3410	-3.99846E-001	-5.39783E-003	0.00000E+000	-3.99973E-001	0.00000E+000	10	...........	1467.44
	690	3425	-3.99848E-001	-5.21827E-003	0.00000E+000	-3.99973E-001	0.00000E+000	10	...........	1467.51
	693	3440	-3.99847E-001	-5.37830E-003	0.00000E+000	-3.99973E-001	0.00000E+000	10	...........	1467.52
	696	3455	-3.99846E-001	-5.39761E-003	0.00000E+000	-3.99973E-001	0.00000E+000	10	...........	1467.52
	699	3470	-3.99850E-001	-5.48028E-003	0.00000E+000	-3.99973E-001	0.00000E+000	10	...........	1467.52
	702	3485	-3.99844E-001	-5.34990E-003	0.00000E+000	-3.99973E-001	0.00000E+000	10	...........	1467.52
	705	3500	-3.99845E-001	-5.35243E-003	0.00000E+000	-3.99973E-001	0.00000E+000	10	...........	1467.51
	708	3515	-3.99851E-001	-5.50738E-003	0.00000E+000	-3.99973E-001	0.00000E+000	10	...........	1467.52
	711	3530	-3.99847E-001	-5.46143E-003	0.00000E+000	-3.99973E-001	0.00000E+000	10	...........	1467.52
	714	3545	-3.99844E-001	-5.47648E-003	0.00000E+000	-3.99973E-001	0.00000E+000	10	...........	1467.51
	717	3560	-3.99845E-001	-5.23768E-003	0.00000E+000	-3.99973E-001	0.00000E+000	10	...........	1467.52
	720	3575	-3.99844E-001	-5.31012E-003	0.00000E+000	-3.99973E-001	0.00000E+000	10	...........	1467.52
	723	3590	-3.99846E-001	-5.28239E-003	0.00000E+000	-3.99973E-001	0.00000E+000	10	...........	1467.52
	726	3605	-3.99847E-001	-5.30791E-003	0.00000E+000	-3.99973E-001	0.00000E+000	10	...........	1467.51
	729	3620	-3.99846E-001	-5.33737E-003	0.00000E+000	-3.99973E-001	0.00000E+000	10	...........	1467.52
	732	3635	-3.99845E-001	-5.35106E-003	0.00000E+000	-3.99973E-001	0.00000E+000	10	...........	1467.52
	735	3650	-3.99845E-001	-5.39111E-003	0.00000E+000	-3.99973E-001	0.00000E+000	10	...........	1467.52
	738	3665	-3.99847E-001	-5.45235E-003	0.00000E+000	-3.99973E-001	0.00000E+000	10	...........	1467.52
	741	3680	-3.99844E-001	-5.44757E-003	0.00000E+000	-3.99973E-001	0.00000E+000	10	...........	1467.52
	744	3695	-3.99845E-001	-5.42903E-003	0.00000E+000	-3.99973E-001	0.00000E+000	10	...........	1467.52
	747	3710	-3.99852E-001	-5.37647E-003	0.00000E+000	-3.99973E-001	0.00000E+000	10	...........	1467.52
	750	3725	-3.99845E-001	-5.47070E-003	0.00000E+000	-3.99973E-001	0.00000E+000	10	...........	1467.52
	753	3740	-3.99847E-001	-5.39516E-003	0.00000E+000	-3.99973E-001	0.00000E+000	10	...........	1467.52
	756	3755	-3.99846E-001	-5.45935E-003	0.00000E+000	-3.99973E-001	0.00000E+000	10	...........	1467.52
	759	3770	-3.99846E-001	-5.41108E-003	0.00000E+000	-3.99973E-001	0.00000E+000	10	...........	1467.52
	762	3785	-3.99846E-001	-5.41666E-003	0.00000E+000	-3.99973E-001	0.00000E+000	10	...........	1467.52
	765	3800	-3.99848E-001	-5.45098E-003	0.00000E+000	-3.99973E-001	0.00000E+000	10	...........	1467.52
	768	3815	-3.99846E-001	-5.44314E-003	0.00000E+000	-3.99973E-001	0.00000E+000	10	...........	1467.52
	771	3830	-3.99842E-001	-5.47908E-003	0.00000E+000	-3.99973E-001	0.00000E+000	10	...........	1467.52
	774	3845	-3.99842E-001	-5.40728E-003	0.00000E+000	-3.99973E-001	0.00000E+000	10	...........	1467.52
	777	3860	-3.99843E-001	-5.40945E-003	0.00000E+000	-3.99973E-001	0.00000E+000	10	...........	1467.52
	780	3875	-3.99843E-001	-5.44036E-003	0.00000E+000	-3.99973E-001	0.00000E+000	10	...........	1467.52
	783	3890	-3.99843E-001	-5.42540E-003	0.00000E+000	-3.99973E-001	0.00000E+000	10	...........	1467.52
	786	3905	-3.99842E-001	-5.38928E-003	0.00000E+000	-3.99973E-001	0.00000E+000	10	...........	1467.52
	789	3920	-3.99847E-001	-5.46357E-003	0.00000E+000	-3.99973E-001	0.00000E+000	10	...........	1467.52
	792	3935	-3.99848E-001	-5.47409E-003	0.00000E+000	-3.99973E-001	0.00000E+000	10	...........	1467.52
	795	3950	-3.99840E-001	-5.48074E-003	0.00000E+000	-3.99973E-001	0.00000E+000	10	...........	1467.52
	798	3965	-3.99844E-001	-5.46017E-003	0.00000E+000	-3.99973E-001	0.00000E+000	10	...........	1467.52
	801	3980	-3.99843E-001	-5.48039E-003	0.00000E+000	-3.99973E-001	0.00000E+000	10	...........	1467.52
	804	3995	-3.99844E-001	-5.49439E-003	0.00000E+000	-3.99973E-001	0.00000E+000	10	...........	1467.52
	807	4010	-3.99844E-001	-5.42061E-003	0.00000E+000	-3.99973E-001	0.00000E+000	10	...........	1467.52
	810	4025	-3.99846E-001	-5.41324E-003	0.00000E+000	-3.99973E-001	0.00000E+000	10	...........	1467.52
	813	4040	-3.99847E-001	-5.53296E-003	0.00000E+000	-3.99973E-001	0.00000E+000	10	...........	1467.52
	816	4055	-3.99848E-001	-5.45443E-003	0.00000E+000	-3.99973E-001	0.00000E+000	10	...........	1467.52
	819	4070	-3.99843E-001	-5.49969E-003	0.00000E+000	-3.99973E-001	0.00000E+000	10	...........	1467.52
	822	4085	-3.99842E-001	-5.35143E-003	0.00000E+000	-3.99973E-001	0.00000E+000	10	...........	1467.52
	825	4100	-3.99848E-001	-5.48119E-003	0.00000E+000	-3.99973E-001	0.00000E+000	10	...........	1467.52
	828	4115	-3.99845E-001	-5.51518E-003	0.00000E+000	-3.99973E-001	0.00000E+000	10	...........	1467.52
	831	4130	-3.99842E-001	-5.46577E-003	0.00000E+000	-3.99973E-001	0.00000E+000	10	...........	1467.53
	834	4145	-3.99847E-001	-5.46869E-003	0.00000E+000	-3.99973E-001	0.00000E+000	10	...........	1467.61
	837	4160	-3.99844E-001	-5.45738E-003	0.00000E+000	-3.99973E-001	0.00000E+000	10	...........	1467.61
	840	4175	-3.99840E-001	-5.48241E-003	0.00000E+000	-3.99973E-001	0.00000E+000	10	...........	1467.53
	843	4190	-3.99845E-001	-5.45611E-003	0.00000E+000	-3.99973E-001	0.00000E+000	10	...........	1467.53
	846	4205	-3.99841E-001	-5.48630E-003	0.00000E+000	-3.99973E-001	0.00000E+000	10	...........	1467.53
	849	4220	-3.99841E-001	-5.52546E-003	0.00000E+000	-3.99973E-001	0.00000E+000	10	...........	1467.61
	852	4235	-3.99840E-001	-5.39448E-003	0.00000E+000	-3.99973E-001	0.00000E+000	10	...........	1467.61
	855	4250	-3.99842E-001	-5.54159E-003	0.00000E+000	-3.99973E-001	0.00000E+000	10	...........	1467.61
	858	4265	-3.99843E-001	-5.53884E-003	0.00000E+000	-3.99973E-001	0.00000E+000	10	...........	1467.61
	861	4280	-3.99844E-001	-5.48005E-003	0.00000E+000	-3.99973E-001	0.00000E+000	10	...........	1467.61
	864	4295	-3.99838E-001	-5.48806E-003	0.00000E+000	-3.99973E-001	0.00000E+000	10	...........	1467.61
	867	4310	-3.99848E-001	-5.47884E-003	0.00000E+000	-3.99973E-001	0.00000E+000	10	...........	1467.61
	870	4325	-3.99846E-001	-5.45539E-003	0.00000E+000	-3.99973E-001	0.00000E+000	10	...........	1467.61
	873	4340	-3.99846E-001	-5.50705E-003	0.00000E+000	-3.99973E-001	0.00000E+000	10	...........	1467.61
	876	4355	-3.99843E-001	-5.56763E-003	0.00000E+000	-3.99973E-001	0.00000E+000	10	...........	1467.61
	879	4370	-3.99847E-001	-5.44363E-003	0.00000E+000	-3.99973E-001	0.00000E+000	10	...........	1467.61
	882	4385	-3.99840E-001	-5.49926E-003	0.00000E+000	-3.99973E-001	0.00000E+000	10	...........	1467.60
	885	4400	-3.99843E-001	-5.47892E-003	0.00000E+000	-3.99973E-001	0.00000E+000	10	...........	1467.61
	888	4415	-3.99844E-001	-5.51675E-003	0.00000E+000	-3.99973E-001	0.00000E+000	10	...........	1467.61
	891	4430	-3.99840E-001	-5.61108E-003	0.00000E+000	-3.99973E-001	0.00000E+000	10	...........	1467.61
	894	4445	-3.99842E-001	-5.50286E-003	0.00000E+000	-3.99973E-001	0.00000E+000	10	...........	1467.61
	897	4460	-3.99841E-001	-5.45378E-003	0.00000E+000	-3.99973E-001	0.00000E+000	10	...........	1467.61
	900	4475	-3.99845E-001	-5.46596E-003	0.00000E+000	-3.99973E-001	0.00000E+000	10	...........	1467.61
	903	4490	-3.99839E-001	-5.53264E-003	0.00000E+000	-3.99973E-001	0.00000E+000	10	...........	1467.61
	906	4505	-3.99844E-001	-5.44601E-003	0.00000E+000	-3.99973E-001	0.00000E+000	10	...........	1467.61
	909	4520	-3.99842E-001	-5.56146E-003	0.00000E+000	-3.99973E-001	0.00000E+000	10	...........	1467.61
	912	4535	-3.99839E-001	-5.52922E-003	0.00000E+000	-3.99973E-001	0.00000E+000	10	...........	1467.61
	915	4550	-3.99838E-001	-5.60565E-003	0.00000E+000	-3.99973E-001	0.00000E+000	10	...........	1467.61
	918	4565	-3.99844E-001	-5.53710E-003	0.00000E+000	-3.99973E-001	0.00000E+000	10	...........	1467.61
	921	4580	-3.99842E-001	-5.52749E-003	0.00000E+000	-3.99973E-001	0.00000E+000	10	...........	1467.61
	924	4595	-3.99844E-001	-5.32967E-003	0.00000E+000	-3.99973E-001	0.00000E+000	10	...........	1467.61
	927	4610	-3.99842E-001	-5.47343E-003	0.00000E+000	-3.99973E-001	0.00000E+000	10	...........	1467.61
	930	4625	-3.99840E-001	-5.45225E-003	0.00000E+000	-3.99973E-001	0.00000E+000	10	...........	1467.61
	933	4640	-3.99841E-001	-5.50812E-003	0.00000E+000	-3.99973E-001	0.00000E+000	10	...........	1467.61
	936	4655	-3.99842E-001	-5.51675E-003	0.00000E+000	-3.99973E-001	0.00000E+000	10	...........	1467.61
	939	4670	-3.99844E-001	-5.52231E-003	0.00000E+000	-3.99973E-001	0.00000E+000	10	...........	1467.61
	942	4685	-3.99843E-001	-5.55823E-003	0.00000E+000	-3.99973E-001	0.00000E+000	10	...........	1467.61
	945	4700	-3.99841E-001	-5.56722E-003	0.00000E+000	-3.99973E-001	0.00000E+000	10	...........	1467.61
	948	4715	-3.99843E-001	-5.48441E-003	0.00000E+000	-3.99973E-001	0.00000E+000	10	...........	1467.61
	951	4730	-3.99843E-001	-5.43213E-003	0.00000E+000	-3.99973E-001	0.00000E+000	10	...........	1467.61
	954	4745	-3.99840E-001	-5.38609E-003	0.00000E+000	-3.99973E-001	0.00000E+000	10	...........	1467.61
	957	4760	-3.99844E-001	-5.36619E-003	0.00000E+000	-3.99973E-001	0.00000E+000	10	...........	1467.61
	960	4775	-3.99840E-001	-5.37620E-003	0.00000E+000	-3.99973E-001	0.00000E+000	10	...........	1467.61
	963	4790	-3.99843E-001	-5.56278E-003	0.00000E+000	-3.99973E-001	0.00000E+000	10	...........	1467.61
	966	4805	-3.99838E-001	-5.34639E-003	0.00000E+000	-3.99973E-001	0.00000E+000	10	...........	1467.61
	969	4820	-3.99841E-001	-5.39124E-003	0.00000E+000	-3.99973E-001	0.00000E+000	10	...........	1467.61
	972	4835	-3.99840E-001	-5.45044E-003	0.00000E+000	-3.99973E-001	0.00000E+000	10	...........	1467.61
	975	4850	-3.99845E-001	-5.39657E-003	0.00000E+000	-3.99973E-001	0.00000E+000	10	...........	1467.61
	978	4865	-3.99841E-001	-5.54286E-003	0.00000E+000	-3.99973E-001	0.00000E+000	10	...........	1467.61
	981	4880	-3.99846E-001	-5.57152E-003	0.00000E+000	-3.99973E-001	0.00000E+000	10	...........	1467.61
	984	4895	-3.99839E-001	-5.56762E-003	0.00000E+000	-3.99973E-001	0.00000E+000	10	...........	1467.61
	987	4910	-3.99844E-001	-5.57999E-003	0.00000E+000	-3.99973E-001	0.00000E+000	10	...........	1467.61
	990	4925	-3.99840E-001	-5.52180E-003	0.00000E+000	-3.99973E-001	0.00000E+000	10	...........	1467.61
	993	4940	-3.99843E-001	-5.50587E-003	0.00000E+000	-3.99973E-001	0.00000E+000	10	...........	1467.61
	996	4955	-3.99842E-001	-5.55268E-003	0.00000E+000	-3.99973E-001	0.00000E+000	10	...........	1467.61
	999	4970	-3.99840E-001	-5.53026E-003	0.00000E+000	-3.99973E-001	0.00000E+000	10	...........	1467.61
	1002	4985	-3.99844E-001	-5.56772E-003	0.00000E+000	-3.99973E-001	0.00000E+000	10	...........	1467.61
	1005	5000	-3.99844E-001	-5.50403E-003	0.00000E+000	-3.99973E-001	0.00000E+000	10	...........	1467.61
	1008	5015	-3.99842E-001	-5.55738E-003	0.00000E+000	-3.99973E-001	0.00000E+000	10	...........	1467.61
	1011	5030	-3.99842E-001	-5.54391E-003	0.00000E+000	-3.99973E-001	0.00000E+000	10	...........	1467.61
	1014	5045	-3.99841E-001	-5.54974E-003	0.00000E+000	-3.99973E-001	0.00000E+000	10	...........	1467.61
	1017	5060	-3.99836E-001	-5.57334E-003	0.00000E+000	-3.99973E-001	0.00000E+000	10	...........	1467.61
	1020	5075	-3.99840E-001	-5.53280E-003	0.00000E+000	-3.99973E-001	0.00000E+000	10	...........	1467.61
	1023	5090	-3.99840E-001	-5.53185E-003	0.00000E+000	-3.99973E-001	0.00000E+000	10	...........	1467.61
	1026	5105	-3.99842E-001	-5.65846E-003	0.00000E+000	-3.99973E-001	0.00000E+000	10	...........	1467.61
	1029	5120	-3.99839E-001	-5.52679E-003	0.00000E+000	-3.99973E-001	0.00000E+000	10	...........	1467.61
	1032	5135	-3.99838E-001	-5.66245E-003	0.00000E+000	-3.99973E-001	0.00000E+000	10	...........	1467.61
	1035	5150	-3.99836E-001	-5.57590E-003	0.00000E+000	-3.99973E-001	0.00000E+000	10	...........	1467.62
	1038	5165	-3.99838E-001	-5.46063E-003	0.00000E+000	-3.99973E-001	0.00000E+000	10	...........	1467.61
	1041	5180	-3.99842E-001	-5.62356E-003	0.00000E+000	-3.99973E-001	0.00000E+000	10	...........	1467.61
	1044	5195	-3.99836E-001	-5.59112E-003	0.00000E+000	-3.99973E-001	0.00000E+000	10	...........	1467.61
	1047	5210	-3.99840E-001	-5.62397E-003	0.00000E+000	-3.99973E-001	0.00000E+000	10	...........	1467.61
	1050	5225	-3.99839E-001	-5.49034E-003	0.00000E+000	-3.99973E-001	0.00000E+000	10	...........	1467.61
	1053	5240	-3.99838E-001	-5.64260E-003	0.00000E+000	-3.99973E-001	0.00000E+000	10	...........	1467.69
	1056	5255	-3.99839E-001	-5.45900E-003	0.00000E+000	-3.99973E-001	0.00000E+000	10	...........	1467.70
	1059	5270	-3.99836E-001	-5.57831E-003	0.00000E+000	-3.99973E-001	0.00000E+000	10	...........	1467.70
	1062	5285	-3.99843E-001	-5.52286E-003	0.00000E+000	-3.99973E-001	0.00000E+000	10	...........	1467.69
	1065	5300	-3.99840E-001	-5.52718E-003	0.00000E+000	-3.99973E-001	0.00000E+000	10	...........	1467.69
	1068	5315	-3.99839E-001	-5.51679E-003	0.00000E+000	-3.99973E-001	0.00000E+000	10	...........	1467.70
	1071	5330	-3.99839E-001	-5.58335E-003	0.00000E+000	-3.99973E-001	0.00000E+000	10	...........	1467.70
	1074	5345	-3.99836E-001	-5.49409E-003	0.00000E+000	-3.99973E-001	0.00000E+000	10	...........	1467.62
	1077	5360	-3.99838E-001	-5.58392E-003	0.00000E+000	-3.99973E-001	0.00000E+000	10	...........	1467.70
	1080	5375	-3.99838E-001	-5.47280E-003	0.00000E+000	-3.99973E-001	0.00000E+000	10	...........	1467.70
	1083	5390	-3.99843E-001	-5.58804E-003	0.00000E+000	-3.99973E-001	0.00000E+000	10	...........	1467.62
	1086	5405	-3.99838E-001	-5.52775E-003	0.00000E+000	-3.99973E-001	0.00000E+000	10	...........	1467.69
	1089	5420	-3.99845E-001	-5.66833E-003	0.00000E+000	-3.99973E-001	0.00000E+000	10	...........	1467.70
	1092	5435	-3.99841E-001	-5.55306E-003	0.00000E+000	-3.99973E-001	0.00000E+000	10	...........	1467.70
	1095	5450	-3.99833E-001	-5.55587E-003	0.00000E+000	-3.99973E-001	0.00000E+000	10	...........	1467.70
	1098	5465	-3.99837E-001	-5.60665E-003	0.00000E+000	-3.99973E-001	0.00000E+000	10	...........	1467.62
	1101	5480	-3.99836E-001	-5.60490E-003	0.00000E+000	-3.99973E-001	0.00000E+000	10	...........	1467.70
	1104	5495	-3.99841E-001	-5.61595E-003	0.00000E+000	-3.99973E-001	0.00000E+000	10	...........	1467.70
	1107	5510	-3.99840E-001	-5.59956E-003	0.00000E+000	-3.99973E-001	0.00000E+000	10	...........	1467.70
	1110	5525	-3.99836E-001	-5.64030E-003	0.00000E+000	-3.99973E-001	0.00000E+000	10	...........	1467.70
	1113	5540	-3.99840E-001	-5.63847E-003	0.00000E+000	-3.99973E-001	0.00000E+000	10	...........	1467.70
	1116	5555	-3.99838E-001	-5.72292E-003	0.00000E+000	-3.99973E-001	0.00000E+000	10	...........	1467.70
	1119	5570	-3.99840E-001	-5.66841E-003	0.00000E+000	-3.99973E-001	0.00000E+000	10	...........	1467.70
	1122	5585	-3.99838E-001	-5.63707E-003	0.00000E+000	-3.99973E-001	0.00000E+000	10	...........	1467.70
	1125	5600	-3.99836E-001	-5.59759E-003	0.00000E+000	-3.99973E-001	0.00000E+000	10	...........	1467.70
	1128	5615	-3.99835E-001	-5.63562E-003	0.00000E+000	-3.99973E-001	0.00000E+000	10	...........	1467.70
	1131	5630	-3.99838E-001	-5.51979E-003	0.00000E+000	-3.99973E-001	0.00000E+000	10	...........	1467.70
	1134	5645	-3.99839E-001	-5.66237E-003	0.00000E+000	-3.99973E-001	0.00000E+000	10	...........	1467.70
	1137	5660	-3.99835E-001	-5.69230E-003	0.00000E+000	-3.99973E-001	0.00000E+000	10	...........	1467.70
	1140	5675	-3.99838E-001	-5.69009E-003	0.00000E+000	-3.99973E-001	0.00000E+000	10	...........	1467.70
	1143	5690	-3.99841E-001	-5.60187E-003	0.00000E+000	-3.99973E-001	0.00000E+000	10	...........	1467.70
	1146	5705	-3.99832E-001	-5.64334E-003	0.00000E+000	-3.99973E-001	0.00000E+000	10	...........	1467.70
	1149	5720	-3.99834E-001	-5.64845E-003	0.00000E+000	-3.99973E-001	0.00000E+000	10	...........	1467.70
	1152	5735	-3.99836E-001	-5.64731E-003	0.00000E+000	-3.99973E-001	0.00000E+000	10	...........	1467.70
	1155	5750	-3.99836E-001	-5.66248E-003	0.00000E+000	-3.99973E-001	0.00000E+000	10	...........	1467.70
	1158	5765	-3.99841E-001	-5.72008E-003	0.00000E+000	-3.99973E-001	0.00000E+000	10	...........	1467.70
	1161	5780	-3.99837E-001	-5.70529E-003	0.00000E+000	-3.99973E-001	0.00000E+000	10	...........	1467.70
	1164	5795	-3.99839E-001	-5.68961E-003	0.00000E+000	-3.99973E-001	0.00000E+000	10	...........	1467.70
	1167	5810	-3.99840E-001	-5.72815E-003	0.00000E+000	-3.99973E-001	0.00000E+000	10	...........	1467.70
	1170	5825	-3.99838E-001	-5.54479E-003	0.00000E+000	-3.99973E-001	0.00000E+000	10	...........	1467.70
	1173	5840	-3.99835E-001	-5.72975E-003	0.00000E+000	-3.99973E-001	0.00000E+000	10	...........	1467.70
	1176	5855	-3.99837E-001	-5.65649E-003	0.00000E+000	-3.99973E-001	0.00000E+000	10	...........	1467.70
	1179	5870	-3.99837E-001	-5.69779E-003	0.00000E+000	-3.99973E-001	0.00000E+000	10	...........	1467.70
	1182	5885	-3.99833E-001	-5.59734E-003	0.00000E+000	-3.99973E-001	0.00000E+000	10	...........	1467.70
	1185	5900	-3.99836E-001	-5.77181E-003	0.00000E+000	-3.99973E-001	0.00000E+000	10	...........	1467.70
	1188	5915	-3.99836E-001	-5.74156E-003	0.00000E+000	-3.99973E-001	0.00000E+000	10	...........	1467.70
	1191	5930	-3.99838E-001	-5.71928E-003	0.00000E+000	-3.99973E-001	0.00000E+000	10	...........	1467.70
	1194	5945	-3.99839E-001	-5.77330E-003	0.00000E+000	-3.99973E-001	0.00000E+000	10	...........	1467.70
	1197	5960	-3.99837E-001	-5.64193E-003	0.00000E+000	-3.99973E-001	0.00000E+000	10	...........	1467.70
	1200	5975	-3.99839E-001	-5.75242E-003	0.00000E+000	-3.99973E-001	0.00000E+000	10	...........	1467.78
	1203	5990	-3.99838E-001	-5.73265E-003	0.00000E+000	-3.99973E-001	0.00000E+000	10	...........	1467.70
	1206	6005	-3.99837E-001	-5.76698E-003	0.00000E+000	-3.99973E-001	0.00000E+000	10	...........	1467.70
	1209	6020	-3.99837E-001	-5.64509E-003	0.00000E+000	-3.99973E-001	0.00000E+000	10	...........	1467.70
	1212	6035	-3.99834E-001	-5.55385E-003	0.00000E+000	-3.99973E-001	0.00000E+000	10	...........	1467.70
	1215	6050	-3.99840E-001	-5.62928E-003	0.00000E+000	-3.99973E-001	0.00000E+000	10	...........	1467.70
	1218	6065	-3.99838E-001	-5.64955E-003	0.00000E+000	-3.99973E-001	0.00000E+000	10	...........	1467.70
	1221	6080	-3.99832E-001	-5.75123E-003	0.00000E+000	-3.99973E-001	0.00000E+000	10	...........	1467.70
	1224	6095	-3.99834E-001	-5.61087E-003	0.00000E+000	-3.99973E-001	0.00000E+000	10	...........	1467.70
	1227	6110	-3.99836E-001	-5.76975E-003	0.00000E+000	-3.99973E-001	0.00000E+000	10	...........	1467.70
	1230	6125	-3.99841E-001	-5.70770E-003	0.00000E+000	-3.99973E-001	0.00000E+000	10	...........	1467.71
	1233	6140	-3.99839E-001	-5.73564E-003	0.00000E+000	-3.99973E-001	0.00000E+000	10	...........	1467.70
	1236	6155	-3.99836E-001	-5.78212E-003	0.00000E+000	-3.99973E-001	0.00000E+000	10	...........	1467.78
	1239	6170	-3.99833E-001	-5.81064E-003	0.00000E+000	-3.99973E-001	0.00000E+000	10	...........	1467.70
	1242	6185	-3.99834E-001	-5.68983E-003	0.00000E+000	-3.99973E-001	0.00000E+000	10	...........	1467.79
	1245	6200	-3.99833E-001	-5.69800E-003	0.00000E+000	-3.99973E-001	0.00000E+000	10	...........	1467.79
	1248	6215	-3.99835E-001	-5.75495E-003	0.00000E+000	-3.99973E-001	0.00000E+000	10	...........	1467.79
	1251	6230	-3.99837E-001	-5.78875E-003	0.00000E+000	-3.99973E-001	0.00000E+000	10	...........	1467.79
	1254	6245	-3.99840E-001	-5.78156E-003	0.00000E+000	-3.99973E-001	0.00000E+000	10	...........	1467.71
	1257	6260	-3.99838E-001	-5.70159E-003	0.00000E+000	-3.99973E-001	0.00000E+000	10	...........	1467.79
	1260	6275	-3.99841E-001	-5.70440E-003	0.00000E+000	-3.99973E-001	0.00000E+000	10	...........	1467.79
	1263	6290	-3.99839E-001	-5.75027E-003	0.00000E+000	-3.99973E-001	0.00000E+000	10	...........	1467.79
	1266	6305	-3.99838E-001	-5.74981E-003	0.00000E+000	-3.99973E-001	0.00000E+000	10	...........	1467.79
	1269	6320	-3.99836E-001	-5.77347E-003	0.00000E+000	-3.99973E-001	0.00000E+000	10	...........	1467.78
	1272	6335	-3.99839E-001	-5.75505E-003	0.00000E+000	-3.99973E-001	0.00000E+000	10	...........	1467.79
	1275	6350	-3.99836E-001	-5.71049E-003	0.00000E+000	-3.99973E-001	0.00000E+000	10	...........	1467.79
	1278	6365	-3.99834E-001	-5.74834E-003	0.00000E+000	-3.99973E-001	0.00000E+000	10	...........	1467.79
	1281	6380	-3.99835E-001	-5.77576E-003	0.00000E+000	-3.99973E-001	0.00000E+000	10	...........	1467.79
	1284	6395	-3.99836E-001	-5.76117E-003	0.00000E+000	-3.99973E-001	0.00000E+000	10	...........	1467.79
	1287	6410	-3.99835E-001	-5.70138E-003	0.00000E+000	-3.99973E-001	0.00000E+000	10	...........	1467.79
	1290	6425	-3.99839E-001	-5.73778E-003	0.00000E+000	-3.99973E-001	0.00000E+000	10	...........	1467.79
	1293	6440	-3.99837E-001	-5.67942E-003	0.00000E+000	-3.99973E-001	0.00000E+000	10	...........	1467.79
	1296	6455	-3.99831E-001	-5.79318E-003	0.00000E+000	-3.99973E-001	0.00000E+000	10	...........	1467.79
	1299	6470	-3.99836E-001	-5.78141E-003	0.00000E+000	-3.99973E-001	0.00000E+000	10	...........	1467.79
	1302	6485	-3.99834E-001	-5.78365E-003	0.00000E+000	-3.99973E-001	0.00000E+000	10	...........	1467.79
	1305	6500	-3.99836E-001	-5.77263E-003	0.00000E+000	-3.99973E-001	0.00000E+000	10	...........	1467.79
	1308	6515	-3.99837E-001	-5.79115E-003	0.00000E+000	-3.99973E-001	0.00000E+000	10	...........	1467.79
	1311	6530	-3.99834E-001	-5.86409E-003	0.00000E+000	-3.99973E-001	0.00000E+000	10	...........	1467.79
	1314	6545	-3.99831E-001	-5.82329E-003	0.00000E+000	-3.99973E-001	0.00000E+000	10	...........	1467.79
	1317	6560	-3.99834E-001	-5.91134E-003	0.00000E+000	-3.99973E-001	0.00000E+000	10	...........	1467.79
	1320	6575	-3.99836E-001	-5.84123E-003	0.00000E+000	-3.99973E-001	0.00000E+000	10	...........	1467.79
	1323	6590	-3.99836E-001	-5.82679E-003	0.00000E+000	-3.99973E-001	0.00000E+000	10	...........	1467.79
	1326	6605	-3.99834E-001	-5.81998E-003	0.00000E+000	-3.99973E-001	0.00000E+000	10	...........	1467.79
	1329	6620	-3.99831E-001	-5.82950E-003	0.00000E+000	-3.99973E-001	0.00000E+000	10	...........	1467.79
	1332	6635	-3.99836E-001	-5.86245E-003	0.00000E+000	-3.99973E-001	0.00000E+000	10	...........	1467.79
	1335	6650	-3.99839E-001	-5.84344E-003	0.00000E+000	-3.99973E-001	0.00000E+000	10	...........	1467.79
	1338	6665	-3.99839E-001	-5.83809E-003	0.00000E+000	-3.99973E-001	0.00000E+000	10	...........	1467.79
	1341	6680	-3.99833E-001	-5.83126E-003	0.00000E+000	-3.99973E-001	0.00000E+000	10	...........	1467.79
	1344	6695	-3.99836E-001	-5.83257E-003	0.00000E+000	-3.99973E-001	0.00000E+000	10	...........	1467.79
	1347	6710	-3.99836E-001	-5.83944E-003	0.00000E+000	-3.99973E-001	0.00000E+000	10	...........	1467.79
	1350	6725	-3.99839E-001	-5.82355E-003	0.00000E+000	-3.99973E-001	0.00000E+000	10	...........	1467.79
	1353	6740	-3.99836E-001	-5.70284E-003	0.00000E+000	-3.99973E-001	0.00000E+000	10	...........	1467.79
	1356	6755	-3.99837E-001	-5.78000E-003	0.00000E+000	-3.99973E-001	0.00000E+000	10	...........	1467.79
	1359	6770	-3.99833E-001	-5.84486E-003	0.00000E+000	-3.99973E-001	0.00000E+000	10	...........	1467.79
	1362	6785	-3.99833E-001	-5.77381E-003	0.00000E+000	-3.99973E-001	0.00000E+000	10	...........	1467.79
	1365	6800	-3.99834E-001	-5.57074E-003	0.00000E+000	-3.99973E-001	0.00000E+000	10	...........	1467.79
	1368	6815	-3.99837E-001	-5.76342E-003	0.00000E+000	-3.99973E-001	0.00000E+000	10	...........	1467.79
	1371	6830	-3.99832E-001	-5.84369E-003	0.00000E+000	-3.99973E-001	0.00000E+000	10	...........	1467.79
	1374	6845	-3.99836E-001	-5.69801E-003	0.00000E+000	-3.99973E-001	0.00000E+000	10	...........	1467.79
	1377	6860	-3.99833E-001	-5.57409E-003	0.00000E+000	-3.99973E-001	0.00000E+000	10	...........	1467.79
	1380	6875	-3.99832E-001	-5.94028E-003	0.00000E+000	-3.99973E-001	0.00000E+000	10	...........	1467.79
	1383	6890	-3.99836E-001	-5.72285E-003	0.00000E+000	-3.99973E-001	0.00000E+000	10	...........	1467.79
	1386	6905	-3.99835E-001	-5.83012E-003	0.00000E+000	-3.99973E-001	0.00000E+000	10	...........	1467.79
	1389	6920	-3.99834E-001	-5.70619E-003	0.00000E+000	-3.99973E-001	0.00000E+000	10	...........	1467.79
	1392	6935	-3.99836E-001	-5.78160E-003	0.00000E+000	-3.99973E-001	0.00000E+000	10	...........	1467.79
	1395	6950	-3.99832E-001	-5.51715E-003	0.00000E+000	-3.99973E-001	0.00000E+000	10	...........	1467.79
	1398	6965	-3.99833E-001	-5.83591E-003	0.00000E+000	-3.99973E-001	0.00000E+000	10	...........	1467.79
	1401	6980	-3.99833E-001	-5.79023E-003	0.00000E+000	-3.99973E-001	0.00000E+000	10	...........	1467.79
	1404	6995	-3.99835E-001	-5.86326E-003	0.00000E+000	-3.99973E-001	0.00000E+000	10	...........	1467.79
	1407	7010	-3.99828E-001	-5.82100E-003	0.00000E+000	-3.99973E-001	0.00000E+000	10	...........	1467.87
	1410	7025	-3.99836E-001	-5.88718E-003	0.00000E+000	-3.99973E-001	0.00000E+000	10	...........	1467.79
	1413	7040	-3.99832E-001	-5.89217E-003	0.00000E+000	-3.99973E-001	0.00000E+000	10	...........	1467.79
	1416	7055	-3.99831E-001	-5.94499E-003	0.00000E+000	-3.99973E-001	0.00000E+000	10	...........	1467.79
	1419	7070	-3.99833E-001	-5.93991E-003	0.00000E+000	-3.99973E-001	0.00000E+000	10	...........	1467.79
	1422	7085	-3.99834E-001	-5.89578E-003	0.00000E+000	-3.99973E-001	0.00000E+000	10	...........	1467.79
	1425	7100	-3.99834E-001	-5.95775E-003	0.00000E+000	-3.99973E-001	0.00000E+000	10	...........	1467.79
	1428	7115	-3.99834E-001	-5.92219E-003	0.00000E+000	-3.99973E-001	0.00000E+000	10	...........	1467.79
	1431	7130	-3.99832E-001	-5.87076E-003	0.00000E+000	-3.99973E-001	0.00000E+000	10	...........	1467.79
	1434	7145	-3.99836E-001	-5.88459E-003	0.00000E+000	-3.99973E-001	0.00000E+000	10	...........	1467.79
	1437	7160	-3.99832E-001	-5.95658E-003	0.00000E+000	-3.99973E-001	0.00000E+000	10	...........	1467.79
	1440	7175	-3.99830E-001	-5.87516E-003	0.00000E+000	-3.99973E-001	0.00000E+000	10	...........	1467.79
	1443	7190	-3.99833E-001	-5.97677E-003	0.00000E+000	-3.99973E-001	0.00000E+000	10	...........	1467.79
	1446	7205	-3.99831E-001	-5.95023E-003	0.00000E+000	-3.99973E-001	0.00000E+000	10	...........	1467.79
	1449	7220	-3.99839E-001	-5.94122E-003	0.00000E+000	-3.99973E-001	0.00000E+000	10	...........	1467.88
	1451	7230	-3.99833E-001	-5.94348E-003	0.00000E+000	-3.99973E-001	0.00000E+000	10	...........	1467.79