File: input/CV_ECSA_#1_#1.DTA
EXPLAIN
TAG	CV
TITLE	LABEL	ECSA	Test Identifier
DATE	LABEL	20.8.2024	Date
TIME	LABEL	8:34:12	Time
NOTES	NOTES	1	Notes...

PSTAT	PSTAT	IFC1010-36105	Potentiostat
VINIT	POTEN	-2.00000E-001	F	A Potential (V)
VLIMIT1	POTEN	0.00000E+000	F	A Potential (V)
VLIMIT2	POTEN	-2.00000E-001	F	A Potential (V)
VFINAL	POTEN	-2.00000E-001	F	A Potential (V)
SCANRATE	QUANT	1.00000E+001	A Real Number
STEPSIZE	QUANT	1.00000E+000	Step Size (mV)
CYCLES	IQUANT	3	Cycles (#)
IMODE	SELECTOR	1	I/E Range Mode
IRANGE	QUANT	3.00000E-001	Max Current (mA)
AREA	QUANT	1.00000E+000	Sample Area (cm^2)
EQDELAY	QUANT	0.00000E+000	Equil. Time (s)
IRCOMP	SELECTOR	0	IRComp
PFCOR	QUANT	5.00000E+001	PF Corr. (ohm)
SAMPLINGMODE	SELECTOR	2	Sampling Mode
EOC	QUANT	-0.1790659	Open Circuit (V)
ELECTRODETYPE	SELECTOR	0	Electrode Type
STRIPPING	TOGGLE	F	Used for Stripping
SEQUENCER	TOGGLE	TRUE	Run as Sequence
PSTATMODEL	IQUANT	64	Pstat Model
PSTATSECTION	LABEL	IFC1010-36105	Pstat Section
PSTATSERIALNO	LABEL	36105	Pstat Serial Number
CTRLMODE	IQUANT	1	Control Mode
ELECTROMETER	IQUANT	0	RE=0 or CS=1
IESTAB	IQUANT	2	I/E Stability
CASPEED	IQUANT	4	Control Amp Speed
CONVENTION	IQUANT	1	Current Convention
ICHRANGE	IQUANT	2	Ich Range
ICHRANGEMODE	TOGGLE	F	Ich Auto Range
ICHOFFSETENABLE	TOGGLE	F	Ich Offset Enable
ICHOFFSET	QUANT	0	Ich Offset (V)
ICHFILTER	IQUANT	3	Ich Filter
VCHRANGE	IQUANT	1	Vch Range
VCHRANGEMODE	TOGGLE	F	Vch Auto Range
VCHOFFSETENABLE	TOGGLE	F	Vch Offset Enable
VCHOFFSET	QUANT	0	Vch Offset (V)
VCHFILTER	IQUANT	3	Vch Filter
IERANGELOWERLIMIT	IQUANT	4	I/E Range Lower Limit
IERANGEMODE	TOGGLE	F	I/E AutoRange
IERANGE	IQUANT	9	I/E Range
ACHSELECT	IQUANT	0	Ach Select
ACHRANGE	IQUANT	2	Ach Range
ACHOFFSETENABLE	TOGGLE	F	Ach Offset Enable
ACHOFFSET	QUANT	0	Ach Offset (V)
ACHFILTER	IQUANT	1	Ach Filter
SENSECABLEID	IQUANT	13	Sense Cable ID
PWRCABLEID	IQUANT	13	Power Cable ID
DCCALDATE	LABEL	10/17/2023	DC Calibration Date
ACCALDATE	LABEL	6/2/2023	AC Calibration Date
FRAMEWORKVERSION	LABEL	7.10.3	Framework Version
INSTRUMENTVERSION	LABEL	4.91	Instrument Version
COMMVERSION	LABEL	3.10	Communications Version
CPUPLDVERSION	LABEL	2.22	CPU PLD Version
CTRLPLDVERSION	LABEL	0.00	CTRL PLD Version
PSTATPLDVERSION	LABEL	0.00	PSTAT PLD Version
CURVE1	TABLE
	Pt	T	Vf	Im	Vu	Sig	Ach	IERange	Over	Temp
	#	s	V vs. Ref.	A	V	V	V	#	bits	deg C
	0	0.1	-2.00074E-001	-1.32364E-007	0.00000E+000	-1.99996E-001	0.00000E+000	9	...........	1488.78
	1	0.2	-1.99076E-001	2.15906E-007	0.00000E+000	-1.98996E-001	0.00000E+000	9	...........	1488.78
	2	0.3	-1.98076E-001	2.51172E-007	0.00000E+000	-1.97996E-001	0.00000E+000	9	...........	1488.78
	3	0.4	-1.97074E-001	2.79097E-007	0.00000E+000	-1.96996E-001	0.00000E+000	9	...........	1488.78
	4	0.5	-1.96076E-001	2.97506E-007	0.00000E+000	-1.95995E-001	0.00000E+000	9	...........	1488.78
	5	0.6	-1.95075E-001	3.15642E-007	0.00000E+000	-1.94995E-001	0.00000E+000	9	...........	1488.78
	6	0.7	-1.94075E-001	3.38706E-007	0.00000E+000	-1.93995E-001	0.00000E+000	9	...........	1488.78
	7	0.8	-1.93076E-001	3.56525E-007	0.00000E+000	-1.92995E-001	0.00000E+000	9	...........	1488.78
	8	0.9	-1.92073E-001	3.74316E-007	0.00000E+000	-1.91994E-001	0.00000E+000	9	...........	1488.78
	9	1	-1.91071E-001	3.93153E-007	0.00000E+000	-1.90994E-001	0.00000E+000	9	...........	1488.97
	10	1.1	-1.90083E-001	4.02463E-007	0.00000E+000	-1.90006E-001	0.00000E+000	9	...........	1489.15
	11	1.2	-1.89084E-001	4.16278E-007	0.00000E+000	-1.89006E-001	0.00000E+000	9	...........	1489.15
	12	1.3	-1.88084E-001	4.29904E-007	0.00000E+000	-1.88006E-001	0.00000E+000	9	...........	1489.15
	13	1.4	-1.87084E-001	4.48051E-007	0.00000E+000	-1.87005E-001	0.00000E+000	9	...........	1489.15
	14	1.5	-1.86082E-001	4.58691E-007	0.00000E+000	-1.86005E-001	0.00000E+000	9	...........	1489.15
	15	1.6	-1.85083E-001	4.66260E-007	0.00000E+000	-1.85005E-001	0.00000E+000	9	...........	1489.15
	16	1.7	-1.84081E-001	4.81793E-007	0.00000E+000	-1.84005E-001	0.00000E+000	9	...........	1489.15
	17	1.8	-1.83084E-001	4.89730E-007	0.00000E+000	-1.83004E-001	0.00000E+000	9	...........	1489.15
	18	1.9	-1.82081E-001	4.97277E-007	0.00000E+000	-1.82004E-001	0.00000E+000	9	...........	1489.15
	19	2	-1.81084E-001	5.12338E-007	0.00000E+000	-1.81004E-001	0.00000E+000	9	...........	1489.15
	20	2.1	-1.80082E-001	5.25774E-007	0.00000E+000	-1.80004E-001	0.00000E+000	9	...........	1489.15
	21	2.2	-1.79081E-001	5.35724E-007	0.00000E+000	-1.79003E-001	0.00000E+000	9	...........	1489.15
	22	2.3	-1.78079E-001	5.47665E-007	0.00000E+000	-1.78003E-001	0.00000E+000	9	...........	1489.15
	23	2.4	-1.77077E-001	5.53727E-007	0.00000E+000	-1.77003E-001	0.00000E+000	9	...........	1489.15
	24	2.5	-1.76081E-001	5.57853E-007	0.00000E+000	-1.76002E-001	0.00000E+000	9	...........	1489.15
	25	2.6	-1.75080E-001	5.68648E-007	0.00000E+000	-1.75002E-001	0.00000E+000	9	...........	1489.15
	26	2.7	-1.74079E-001	5.80845E-007	0.00000E+000	-1.74002E-001	0.00000E+000	9	...........	1489.15
	27	2.8	-1.73078E-001	5.83420E-007	0.00000E+000	-1.73002E-001	0.00000E+000	9	...........	1489.15
	28	2.9	-1.72079E-001	5.90594E-007	0.00000E+000	-1.72001E-001	0.00000E+000	9	...........	1489.15
	29	3	-1.71077E-001	6.03364E-007	0.00000E+000	-1.71001E-001	0.00000E+000	9	...........	1489.15
	30	3.1	-1.70077E-001	6.12629E-007	0.00000E+000	-1.70001E-001	0.00000E+000	9	...........	1489.15
	31	3.2	-1.69077E-001	6.21022E-007	0.00000E+000	-1.69001E-001	0.00000E+000	9	...........	1489.15
	32	3.3	-1.68076E-001	6.28941E-007	0.00000E+000	-1.68000E-001	0.00000E+000	9	...........	1489.15
	33	3.4	-1.67075E-001	6.37968E-007	0.00000E+000	-1.67000E-001	0.00000E+000	9	...........	1489.15
	34	3.5	-1.66074E-001	6.39797E-007	0.00000E+000	-1.66000E-001	0.00000E+000	9	...........	1489.15
	35	3.6	-1.65075E-001	6.47122E-007	0.00000E+000	-1.65000E-001	0.00000E+000	9	...........	1489.15
	36	3.7	-1.64075E-001	6.52439E-007	0.00000E+000	-1.63999E-001	0.00000E+000	9	...........	1489.15
	37	3.8	-1.63077E-001	6.57939E-007	0.00000E+000	-1.62999E-001	0.00000E+000	9	...........	1489.15
	38	3.9	-1.62075E-001	6.64869E-007	0.00000E+000	-1.61999E-001	0.00000E+000	9	...........	1489.15
	39	4	-1.61075E-001	6.74268E-007	0.00000E+000	-1.60998E-001	0.00000E+000	9	...........	1488.92
	40	4.1	-1.60074E-001	6.80469E-007	0.00000E+000	-1.59998E-001	0.00000E+000	9	...........	1488.69
	41	4.2	-1.59071E-001	6.87827E-007	0.00000E+000	-1.58998E-001	0.00000E+000	9	...........	1488.69
	42	4.3	-1.58073E-001	6.96903E-007	0.00000E+000	-1.57998E-001	0.00000E+000	9	...........	1488.69
	43	4.4	-1.57074E-001	7.03677E-007	0.00000E+000	-1.56997E-001	0.00000E+000	9	...........	1488.69
	44	4.5	-1.56074E-001	7.10290E-007	0.00000E+000	-1.55997E-001	0.00000E+000	9	...........	1488.69
	45	4.6	-1.55074E-001	7.19000E-007	0.00000E+000	-1.54997E-001	0.00000E+000	9	...........	1488.69
	46	4.7	-1.54072E-001	7.21614E-007	0.00000E+000	-1.53997E-001	0.00000E+000	9	...........	1488.69
	47	4.8	-1.53071E-001	7.20623E-007	0.00000E+000	-1.52996E-001	0.00000E+000	9	...........	1488.69
	48	4.9	-1.52071E-001	7.30239E-007	0.00000E+000	-1.51996E-001	0.00000E+000	9	...........	1488.69
	49	5	-1.51073E-001	7.36730E-007	0.00000E+000	-1.50996E-001	0.00000E+000	9	...........	1488.93
	50	5.1	-1.50074E-001	7.43893E-007	0.00000E+000	-1.49996E-001	0.00000E+000	9	...........	1489.15
	51	5.2	-1.49073E-001	7.48404E-007	0.00000E+000	-1.48995E-001	0.00000E+000	9	...........	1489.15
	52	5.3	-1.48072E-001	7.59927E-007	0.00000E+000	-1.47995E-001	0.00000E+000	9	...........	1489.15
	53	5.4	-1.47073E-001	7.60989E-007	0.00000E+000	-1.46995E-001	0.00000E+000	9	...........	1489.15
	54	5.5	-1.46070E-001	7.65261E-007	0.00000E+000	-1.45994E-001	0.00000E+000	9	...........	1489.15
	55	5.6	-1.45069E-001	7.69738E-007	0.00000E+000	-1.44994E-001	0.00000E+000	9	...........	1489.15
	56	5.7	-1.44069E-001	7.76378E-007	0.00000E+000	-1.43994E-001	0.00000E+000	9	...........	1489.15
	57	5.8	-1.43082E-001	7.72774E-007	0.00000E+000	-1.43006E-001	0.00000E+000	9	...........	1489.15
	58	5.9	-1.42082E-001	7.85989E-007	0.00000E+000	-1.42006E-001	0.00000E+000	9	...........	1489.15
	59	6	-1.41080E-001	7.92679E-007	0.00000E+000	-1.41006E-001	0.00000E+000	9	...........	1489.01
	60	6.1	-1.40081E-001	7.98380E-007	0.00000E+000	-1.40005E-001	0.00000E+000	9	...........	1488.88
	61	6.2	-1.39080E-001	8.01366E-007	0.00000E+000	-1.39005E-001	0.00000E+000	9	...........	1488.88
	62	6.3	-1.38079E-001	8.08502E-007	0.00000E+000	-1.38005E-001	0.00000E+000	9	...........	1488.88
	63	6.4	-1.37079E-001	8.08824E-007	0.00000E+000	-1.37005E-001	0.00000E+000	9	...........	1488.88
	64	6.5	-1.36078E-001	8.14186E-007	0.00000E+000	-1.36004E-001	0.00000E+000	9	...........	1488.88
	65	6.6	-1.35080E-001	8.20187E-007	0.00000E+000	-1.35004E-001	0.00000E+000	9	...........	1488.88
	66	6.7	-1.34079E-001	8.24380E-007	0.00000E+000	-1.34004E-001	0.00000E+000	9	...........	1488.88
	67	6.8	-1.33077E-001	8.29663E-007	0.00000E+000	-1.33004E-001	0.00000E+000	9	...........	1488.88
	68	6.9	-1.32075E-001	8.34001E-007	0.00000E+000	-1.32003E-001	0.00000E+000	9	...........	1488.88
	69	7	-1.31077E-001	8.40453E-007	0.00000E+000	-1.31003E-001	0.00000E+000	9	...........	1489.02
	70	7.1	-1.30077E-001	8.47933E-007	0.00000E+000	-1.30003E-001	0.00000E+000	9	...........	1489.15
	71	7.2	-1.29078E-001	8.48640E-007	0.00000E+000	-1.29002E-001	0.00000E+000	9	...........	1489.15
	72	7.3	-1.28075E-001	8.50314E-007	0.00000E+000	-1.28002E-001	0.00000E+000	9	...........	1489.15
	73	7.4	-1.27074E-001	8.51148E-007	0.00000E+000	-1.27002E-001	0.00000E+000	9	...........	1489.15
	74	7.5	-1.26074E-001	8.54162E-007	0.00000E+000	-1.26002E-001	0.00000E+000	9	...........	1489.15
	75	7.6	-1.25074E-001	8.54963E-007	0.00000E+000	-1.25001E-001	0.00000E+000	9	...........	1489.15
	76	7.7	-1.24074E-001	8.54779E-007	0.00000E+000	-1.24001E-001	0.00000E+000	9	...........	1489.15
	77	7.8	-1.23074E-001	8.65207E-007	0.00000E+000	-1.23001E-001	0.00000E+000	9	...........	1489.15
	78	7.9	-1.22075E-001	8.68633E-007	0.00000E+000	-1.22001E-001	0.00000E+000	9	...........	1489.15
	79	8	-1.21075E-001	8.72727E-007	0.00000E+000	-1.21000E-001	0.00000E+000	9	...........	1489.06
	80	8.1	-1.20071E-001	8.72982E-007	0.00000E+000	-1.20000E-001	0.00000E+000	9	...........	1488.97
	81	8.2	-1.19072E-001	8.83561E-007	0.00000E+000	-1.19000E-001	0.00000E+000	9	...........	1488.97
	82	8.3	-1.18071E-001	8.84823E-007	0.00000E+000	-1.17999E-001	0.00000E+000	9	...........	1488.97
	83	8.4	-1.17073E-001	8.86870E-007	0.00000E+000	-1.16999E-001	0.00000E+000	9	...........	1488.97
	84	8.5	-1.16071E-001	8.89995E-007	0.00000E+000	-1.15999E-001	0.00000E+000	9	...........	1488.97
	85	8.6	-1.15071E-001	8.99900E-007	0.00000E+000	-1.14999E-001	0.00000E+000	9	...........	1488.97
	86	8.7	-1.14068E-001	9.04183E-007	0.00000E+000	-1.13998E-001	0.00000E+000	9	...........	1488.97
	87	8.8	-1.13067E-001	9.03660E-007	0.00000E+000	-1.12998E-001	0.00000E+000	9	...........	1488.97
	88	8.9	-1.12070E-001	9.03577E-007	0.00000E+000	-1.11998E-001	0.00000E+000	9	...........	1488.97
	89	9	-1.11068E-001	9.09121E-007	0.00000E+000	-1.10998E-001	0.00000E+000	9	...........	1489.06
	90	9.1	-1.10068E-001	9.09917E-007	0.00000E+000	-1.09997E-001	0.00000E+000	9	...........	1489.15
	91	9.2	-1.09067E-001	9.11585E-007	0.00000E+000	-1.08997E-001	0.00000E+000	9	...........	1489.15
	92	9.3	-1.08066E-001	9.14655E-007	0.00000E+000	-1.07997E-001	0.00000E+000	9	...........	1489.15
	93	9.4	-1.07065E-001	9.25500E-007	0.00000E+000	-1.06997E-001	0.00000E+000	9	...........	1489.15
	94	9.5	-1.06066E-001	9.25895E-007	0.00000E+000	-1.05996E-001	0.00000E+000	9	...........	1489.15
	95	9.6	-1.05067E-001	9.26518E-007	0.00000E+000	-1.04996E-001	0.00000E+000	9	...........	1489.15
	96	9.7	-1.04069E-001	9.32185E-007	0.00000E+000	-1.03996E-001	0.00000E+000	9	...........	1489.15
	97	9.8	-1.03065E-001	9.33509E-007	0.00000E+000	-1.02995E-001	0.00000E+000	9	...........	1489.15
	98	9.9	-1.02065E-001	9.35711E-007	0.00000E+000	-1.01995E-001	0.00000E+000	9	...........	1489.15
	99	10	-1.01064E-001	9.44309E-007	0.00000E+000	-1.00995E-001	0.00000E+000	9	...........	1489.10
	100	10.1	-1.00065E-001	9.44860E-007	0.00000E+000	-9.99947E-002	0.00000E+000	9	...........	1489.06
	101	10.2	-9.90666E-002	9.38876E-007	0.00000E+000	-9.89944E-002	0.00000E+000	9	...........	1489.06
	102	10.3	-9.80665E-002	9.47468E-007	0.00000E+000	-9.79941E-002	0.00000E+000	9	...........	1489.06
	103	10.4	-9.70654E-002	9.52474E-007	0.00000E+000	-9.69939E-002	0.00000E+000	9	...........	1489.06
	104	10.5	-9.60754E-002	9.50416E-007	0.00000E+000	-9.60061E-002	0.00000E+000	9	...........	1489.06
	105	10.6	-9.50737E-002	9.56484E-007	0.00000E+000	-9.50058E-002	0.00000E+000	9	...........	1489.06
	106	10.7	-9.40748E-002	9.58959E-007	0.00000E+000	-9.40056E-002	0.00000E+000	9	...........	1489.06
	107	10.8	-9.30759E-002	9.58786E-007	0.00000E+000	-9.30053E-002	0.00000E+000	9	...........	1489.06
	108	10.9	-9.20746E-002	9.70004E-007	0.00000E+000	-9.20050E-002	0.00000E+000	9	...........	1489.06
	109	11	-9.10738E-002	9.74103E-007	0.00000E+000	-9.10048E-002	0.00000E+000	9	...........	1489.11
	110	11.1	-9.00721E-002	9.74848E-007	0.00000E+000	-9.00045E-002	0.00000E+000	9	...........	1489.15
	111	11.2	-8.90734E-002	9.73480E-007	0.00000E+000	-8.90042E-002	0.00000E+000	9	...........	1489.15
	112	11.3	-8.80720E-002	9.80587E-007	0.00000E+000	-8.80040E-002	0.00000E+000	9	...........	1489.15
	113	11.4	-8.70729E-002	9.84280E-007	0.00000E+000	-8.70037E-002	0.00000E+000	9	...........	1489.15
	114	11.5	-8.60715E-002	9.92806E-007	0.00000E+000	-8.60034E-002	0.00000E+000	9	...........	1489.15
	115	11.6	-8.50720E-002	9.91288E-007	0.00000E+000	-8.50032E-002	0.00000E+000	9	...........	1489.15
	116	11.7	-8.40713E-002	9.92851E-007	0.00000E+000	-8.40029E-002	0.00000E+000	9	...........	1489.15
	117	11.8	-8.30706E-002	9.94236E-007	0.00000E+000	-8.30026E-002	0.00000E+000	9	...........	1489.15
	118	11.9	-8.20731E-002	9.99408E-007	0.00000E+000	-8.20024E-002	0.00000E+000	9	...........	1489.15
	119	12	-8.10734E-002	1.00708E-006	0.00000E+000	-8.10021E-002	0.00000E+000	9	...........	1489.15
	120	12.1	-8.00741E-002	1.00502E-006	0.00000E+000	-8.00018E-002	0.00000E+000	9	...........	1489.15
	121	12.2	-7.90728E-002	1.01477E-006	0.00000E+000	-7.90016E-002	0.00000E+000	9	...........	1489.15
	122	12.3	-7.80721E-002	1.01376E-006	0.00000E+000	-7.80013E-002	0.00000E+000	9	...........	1489.15
	123	12.4	-7.70693E-002	1.01425E-006	0.00000E+000	-7.70010E-002	0.00000E+000	9	...........	1489.15
	124	12.5	-7.60696E-002	1.01524E-006	0.00000E+000	-7.60008E-002	0.00000E+000	9	...........	1489.15
	125	12.6	-7.50691E-002	1.01535E-006	0.00000E+000	-7.50005E-002	0.00000E+000	9	...........	1489.15
	126	12.7	-7.40695E-002	1.00722E-006	0.00000E+000	-7.40002E-002	0.00000E+000	9	...........	1489.15
	127	12.8	-7.30694E-002	1.01628E-006	0.00000E+000	-7.30000E-002	0.00000E+000	9	...........	1489.15
	128	12.9	-7.20698E-002	1.01814E-006	0.00000E+000	-7.19997E-002	0.00000E+000	9	...........	1489.15
	129	13	-7.10708E-002	1.02177E-006	0.00000E+000	-7.09994E-002	0.00000E+000	9	...........	1489.15
	130	13.1	-7.00667E-002	1.03160E-006	0.00000E+000	-6.99992E-002	0.00000E+000	9	...........	1489.15
	131	13.2	-6.90654E-002	1.03177E-006	0.00000E+000	-6.89989E-002	0.00000E+000	9	...........	1489.15
	132	13.3	-6.80659E-002	1.03085E-006	0.00000E+000	-6.79986E-002	0.00000E+000	9	...........	1489.15
	133	13.4	-6.70676E-002	1.03620E-006	0.00000E+000	-6.69984E-002	0.00000E+000	9	...........	1489.15
	134	13.5	-6.60661E-002	1.03288E-006	0.00000E+000	-6.59981E-002	0.00000E+000	9	...........	1489.15
	135	13.6	-6.50650E-002	1.03512E-006	0.00000E+000	-6.49978E-002	0.00000E+000	9	...........	1489.15
	136	13.7	-6.40627E-002	1.04814E-006	0.00000E+000	-6.39976E-002	0.00000E+000	9	...........	1489.15
	137	13.8	-6.30634E-002	1.05226E-006	0.00000E+000	-6.29973E-002	0.00000E+000	9	...........	1489.15
	138	13.9	-6.20621E-002	1.05532E-006	0.00000E+000	-6.19970E-002	0.00000E+000	9	...........	1489.15
	139	14	-6.10611E-002	1.05800E-006	0.00000E+000	-6.09967E-002	0.00000E+000	9	...........	1489.15
	140	14.1	-6.00619E-002	1.06391E-006	0.00000E+000	-5.99965E-002	0.00000E+000	9	...........	1489.15
	141	14.2	-5.90614E-002	1.06471E-006	0.00000E+000	-5.89962E-002	0.00000E+000	9	...........	1489.15
	142	14.3	-5.80614E-002	1.06540E-006	0.00000E+000	-5.79959E-002	0.00000E+000	9	...........	1489.15
	143	14.4	-5.70606E-002	1.06938E-006	0.00000E+000	-5.69957E-002	0.00000E+000	9	...........	1489.15
	144	14.5	-5.60573E-002	1.07447E-006	0.00000E+000	-5.59954E-002	0.00000E+000	9	...........	1489.15
	145	14.6	-5.50582E-002	1.07416E-006	0.00000E+000	-5.49951E-002	0.00000E+000	9	...........	1489.15
	146	14.7	-5.40582E-002	1.08075E-006	0.00000E+000	-5.39949E-002	0.00000E+000	9	...........	1489.15
	147	14.8	-5.30580E-002	1.09026E-006	0.00000E+000	-5.29946E-002	0.00000E+000	9	...........	1489.15
	148	14.9	-5.20577E-002	1.09438E-006	0.00000E+000	-5.19943E-002	0.00000E+000	9	...........	1489.15
	149	15	-5.10565E-002	1.09113E-006	0.00000E+000	-5.09941E-002	0.00000E+000	9	...........	1489.20
	150	15.1	-5.00541E-002	1.10136E-006	0.00000E+000	-4.99938E-002	0.00000E+000	9	...........	1489.24
	151	15.2	-4.90665E-002	1.10532E-006	0.00000E+000	-4.90060E-002	0.00000E+000	9	...........	1489.24
	152	15.3	-4.80696E-002	1.10792E-006	0.00000E+000	-4.80058E-002	0.00000E+000	9	...........	1489.24
	153	15.4	-4.70696E-002	1.10945E-006	0.00000E+000	-4.70055E-002	0.00000E+000	9	...........	1489.24
	154	15.5	-4.60673E-002	1.12032E-006	0.00000E+000	-4.60052E-002	0.00000E+000	9	...........	1489.24
	155	15.6	-4.50660E-002	1.12460E-006	0.00000E+000	-4.50050E-002	0.00000E+000	9	...........	1489.24
	156	15.7	-4.40656E-002	1.12536E-006	0.00000E+000	-4.40047E-002	0.00000E+000	9	...........	1489.24
	157	15.8	-4.30626E-002	1.12379E-006	0.00000E+000	-4.30044E-002	0.00000E+000	9	...........	1489.24
	158	15.9	-4.20620E-002	1.12246E-006	0.00000E+000	-4.20042E-002	0.00000E+000	9	...........	1489.24
	159	16	-4.10613E-002	1.11999E-006	0.00000E+000	-4.10039E-002	0.00000E+000	9	...........	1489.19
	160	16.1	-4.00632E-002	1.12383E-006	0.00000E+000	-4.00036E-002	0.00000E+000	9	...........	1489.15
	161	16.2	-3.90630E-002	1.13316E-006	0.00000E+000	-3.90034E-002	0.00000E+000	9	...........	1489.15
	162	16.3	-3.80607E-002	1.13190E-006	0.00000E+000	-3.80031E-002	0.00000E+000	9	...........	1489.15
	163	16.4	-3.70591E-002	1.13890E-006	0.00000E+000	-3.70028E-002	0.00000E+000	9	...........	1489.15
	164	16.5	-3.60582E-002	1.14116E-006	0.00000E+000	-3.60026E-002	0.00000E+000	9	...........	1489.15
	165	16.6	-3.50616E-002	1.13941E-006	0.00000E+000	-3.50023E-002	0.00000E+000	9	...........	1489.15
	166	16.7	-3.40597E-002	1.14183E-006	0.00000E+000	-3.40020E-002	0.00000E+000	9	...........	1489.15
	167	16.8	-3.30593E-002	1.14793E-006	0.00000E+000	-3.30018E-002	0.00000E+000	9	...........	1489.15
	168	16.9	-3.20571E-002	1.14935E-006	0.00000E+000	-3.20015E-002	0.00000E+000	9	...........	1489.15
	169	17	-3.10560E-002	1.15043E-006	0.00000E+000	-3.10012E-002	0.00000E+000	9	...........	1489.15
	170	17.1	-3.00562E-002	1.15179E-006	0.00000E+000	-3.00010E-002	0.00000E+000	9	...........	1489.15
	171	17.2	-2.90574E-002	1.16237E-006	0.00000E+000	-2.90007E-002	0.00000E+000	9	...........	1489.15
	172	17.3	-2.80555E-002	1.16774E-006	0.00000E+000	-2.80004E-002	0.00000E+000	9	...........	1489.15
	173	17.4	-2.70553E-002	1.16883E-006	0.00000E+000	-2.70002E-002	0.00000E+000	9	...........	1489.15
	174	17.5	-2.60552E-002	1.17254E-006	0.00000E+000	-2.59999E-002	0.00000E+000	9	...........	1489.15
	175	17.6	-2.50520E-002	1.17224E-006	0.00000E+000	-2.49996E-002	0.00000E+000	9	...........	1489.15
	176	17.7	-2.40515E-002	1.17983E-006	0.00000E+000	-2.39994E-002	0.00000E+000	9	...........	1489.15
	177	17.8	-2.30522E-002	1.17907E-006	0.00000E+000	-2.29991E-002	0.00000E+000	9	...........	1489.15
	178	17.9	-2.20548E-002	1.18838E-006	0.00000E+000	-2.19988E-002	0.00000E+000	9	...........	1489.15
	179	18	-2.10526E-002	1.18520E-006	0.00000E+000	-2.09986E-002	0.00000E+000	9	...........	1489.15
	180	18.1	-2.00506E-002	1.19091E-006	0.00000E+000	-1.99983E-002	0.00000E+000	9	...........	1489.15
	181	18.2	-1.90497E-002	1.20062E-006	0.00000E+000	-1.89980E-002	0.00000E+000	9	...........	1489.15
	182	18.3	-1.80479E-002	1.20807E-006	0.00000E+000	-1.79978E-002	0.00000E+000	9	...........	1489.15
	183	18.4	-1.70488E-002	1.21637E-006	0.00000E+000	-1.69975E-002	0.00000E+000	9	...........	1489.15
	184	18.5	-1.60490E-002	1.20650E-006	0.00000E+000	-1.59972E-002	0.00000E+000	9	...........	1489.15
	185	18.6	-1.50482E-002	1.21078E-006	0.00000E+000	-1.49970E-002	0.00000E+000	9	...........	1489.15
	186	18.7	-1.40476E-002	1.21808E-006	0.00000E+000	-1.39967E-002	0.00000E+000	9	...........	1489.15
	187	18.8	-1.30462E-002	1.22206E-006	0.00000E+000	-1.29964E-002	0.00000E+000	9	...........	1489.15
	188	18.9	-1.20452E-002	1.21595E-006	0.00000E+000	-1.19962E-002	0.00000E+000	9	...........	1489.15
	189	19	-1.10430E-002	1.22118E-006	0.00000E+000	-1.09959E-002	0.00000E+000	9	...........	1489.20
	190	19.1	-1.00422E-002	1.22629E-006	0.00000E+000	-9.99562E-003	0.00000E+000	9	...........	1489.24
	191	19.2	-9.04284E-003	1.22423E-006	0.00000E+000	-8.99535E-003	0.00000E+000	9	...........	1489.24
	192	19.3	-8.04358E-003	1.23580E-006	0.00000E+000	-7.99508E-003	0.00000E+000	9	...........	1489.24
	193	19.4	-7.04225E-003	1.23949E-006	0.00000E+000	-6.99481E-003	0.00000E+000	9	...........	1489.24
	194	19.5	-6.04413E-003	1.24172E-006	0.00000E+000	-5.99455E-003	0.00000E+000	9	...........	1489.24
	195	19.6	-5.04038E-003	1.24617E-006	0.00000E+000	-4.99428E-003	0.00000E+000	9	...........	1489.24
	196	19.7	-4.03882E-003	1.25322E-006	0.00000E+000	-3.99401E-003	0.00000E+000	9	...........	1489.24
	197	19.8	-3.04089E-003	1.24974E-006	0.00000E+000	-2.99375E-003	0.00000E+000	9	...........	1489.24
	198	19.9	-2.05142E-003	1.24232E-006	0.00000E+000	-2.00598E-003	0.00000E+000	9	...........	1489.24
	199	20	-1.05111E-003	1.24878E-006	0.00000E+000	-1.00572E-003	0.00000E+000	9	...........	1489.19
	200	20.1	-4.96072E-005	1.25573E-006	0.00000E+000	-5.44637E-006	0.00000E+000	9	...........	1489.15
	201	20.2	-1.04872E-003	7.52046E-007	0.00000E+000	-1.00572E-003	0.00000E+000	9	...........	1489.15
	202	20.3	-2.04988E-003	7.17893E-007	0.00000E+000	-2.00598E-003	0.00000E+000	9	...........	1489.15
	203	20.4	-3.03836E-003	6.94217E-007	0.00000E+000	-2.99375E-003	0.00000E+000	9	...........	1489.15
	204	20.5	-4.03478E-003	6.72377E-007	0.00000E+000	-3.99401E-003	0.00000E+000	9	...........	1489.15
	205	20.6	-5.03592E-003	6.54469E-007	0.00000E+000	-4.99428E-003	0.00000E+000	9	...........	1489.15
	206	20.7	-6.03965E-003	6.43601E-007	0.00000E+000	-5.99455E-003	0.00000E+000	9	...........	1489.15
	207	20.8	-7.03812E-003	6.27351E-007	0.00000E+000	-6.99481E-003	0.00000E+000	9	...........	1489.15
	208	20.9	-8.03867E-003	6.09809E-007	0.00000E+000	-7.99508E-003	0.00000E+000	9	...........	1489.15
	209	21	-9.03797E-003	5.95333E-007	0.00000E+000	-8.99535E-003	0.00000E+000	9	...........	1488.95
	210	21.1	-1.00387E-002	5.84649E-007	0.00000E+000	-9.99562E-003	0.00000E+000	9	...........	1488.78
	211	21.2	-1.10410E-002	5.69939E-007	0.00000E+000	-1.09959E-002	0.00000E+000	9	...........	1488.78
	212	21.3	-1.20411E-002	5.56708E-007	0.00000E+000	-1.19962E-002	0.00000E+000	9	...........	1488.78
	213	21.4	-1.30408E-002	5.40891E-007	0.00000E+000	-1.29964E-002	0.00000E+000	9	...........	1488.78
	214	21.5	-1.40424E-002	5.30746E-007	0.00000E+000	-1.39967E-002	0.00000E+000	9	...........	1488.78
	215	21.6	-1.50436E-002	5.23939E-007	0.00000E+000	-1.49970E-002	0.00000E+000	9	...........	1488.78
	216	21.7	-1.60444E-002	5.11971E-007	0.00000E+000	-1.59972E-002	0.00000E+000	9	...........	1488.78
	217	21.8	-1.70428E-002	5.00191E-007	0.00000E+000	-1.69975E-002	0.00000E+000	9	...........	1488.78
	218	21.9	-1.80420E-002	4.89391E-007	0.00000E+000	-1.79978E-002	0.00000E+000	9	...........	1488.78
	219	22	-1.90451E-002	4.78607E-007	0.00000E+000	-1.89980E-002	0.00000E+000	9	...........	1489.03
	220	22.1	-2.00466E-002	4.65087E-007	0.00000E+000	-1.99983E-002	0.00000E+000	9	...........	1489.24
	221	22.2	-2.10478E-002	4.58897E-007	0.00000E+000	-2.09986E-002	0.00000E+000	9	...........	1489.24
	222	22.3	-2.20497E-002	4.54453E-007	0.00000E+000	-2.19988E-002	0.00000E+000	9	...........	1489.24
	223	22.4	-2.30484E-002	4.41100E-007	0.00000E+000	-2.29991E-002	0.00000E+000	9	...........	1489.24
	224	22.5	-2.40471E-002	4.34709E-007	0.00000E+000	-2.39994E-002	0.00000E+000	9	...........	1489.24
	225	22.6	-2.50481E-002	4.24115E-007	0.00000E+000	-2.49996E-002	0.00000E+000	9	...........	1489.24
	226	22.7	-2.60525E-002	4.16384E-007	0.00000E+000	-2.59999E-002	0.00000E+000	9	...........	1489.24
	227	22.8	-2.70511E-002	4.12385E-007	0.00000E+000	-2.70002E-002	0.00000E+000	9	...........	1489.24
	228	22.9	-2.80501E-002	4.04377E-007	0.00000E+000	-2.80004E-002	0.00000E+000	9	...........	1489.24
	229	23	-2.90512E-002	3.95156E-007	0.00000E+000	-2.90007E-002	0.00000E+000	9	...........	1488.99
	230	23.1	-3.00509E-002	3.89588E-007	0.00000E+000	-3.00010E-002	0.00000E+000	9	...........	1488.78
	231	23.2	-3.10513E-002	3.85328E-007	0.00000E+000	-3.10012E-002	0.00000E+000	9	...........	1488.78
	232	23.3	-3.20528E-002	3.78432E-007	0.00000E+000	-3.20015E-002	0.00000E+000	9	...........	1488.78
	233	23.4	-3.30548E-002	3.64433E-007	0.00000E+000	-3.30018E-002	0.00000E+000	9	...........	1488.78
	234	23.5	-3.40550E-002	3.49907E-007	0.00000E+000	-3.40020E-002	0.00000E+000	9	...........	1488.78
	235	23.6	-3.50565E-002	3.45652E-007	0.00000E+000	-3.50023E-002	0.00000E+000	9	...........	1488.78
	236	23.7	-3.60546E-002	3.49362E-007	0.00000E+000	-3.60026E-002	0.00000E+000	9	...........	1488.78
	237	23.8	-3.70570E-002	3.42248E-007	0.00000E+000	-3.70028E-002	0.00000E+000	9	...........	1488.78
	238	23.9	-3.80573E-002	3.33383E-007	0.00000E+000	-3.80031E-002	0.00000E+000	9	...........	1488.78
	239	24	-3.90597E-002	3.26092E-007	0.00000E+000	-3.90034E-002	0.00000E+000	9	...........	1489.03
	240	24.1	-4.00597E-002	3.25959E-007	0.00000E+000	-4.00036E-002	0.00000E+000	9	...........	1489.24
	241	24.2	-4.10590E-002	3.17477E-007	0.00000E+000	-4.10039E-002	0.00000E+000	9	...........	1489.24
	242	24.3	-4.20602E-002	3.09174E-007	0.00000E+000	-4.20042E-002	0.00000E+000	9	...........	1489.24
	243	24.4	-4.30609E-002	2.97055E-007	0.00000E+000	-4.30044E-002	0.00000E+000	9	...........	1489.24
	244	24.5	-4.40636E-002	2.88624E-007	0.00000E+000	-4.40047E-002	0.00000E+000	9	...........	1489.24
	245	24.6	-4.50629E-002	2.83457E-007	0.00000E+000	-4.50050E-002	0.00000E+000	9	...........	1489.24
	246	24.7	-4.60627E-002	2.80938E-007	0.00000E+000	-4.60052E-002	0.00000E+000	9	...........	1489.24
	247	24.8	-4.70650E-002	2.75454E-007	0.00000E+000	-4.70055E-002	0.00000E+000	9	...........	1489.24
	248	24.9	-4.80646E-002	2.73491E-007	0.00000E+000	-4.80058E-002	0.00000E+000	9	...........	1489.24
	249	25	-4.90615E-002	2.63046E-007	0.00000E+000	-4.90060E-002	0.00000E+000	9	...........	1489.04
	250	25.1	-5.00499E-002	2.59142E-007	0.00000E+000	-4.99938E-002	0.00000E+000	9	...........	1488.88
	251	25.2	-5.10512E-002	2.47824E-007	0.00000E+000	-5.09941E-002	0.00000E+000	9	...........	1488.88
	252	25.3	-5.20537E-002	2.40450E-007	0.00000E+000	-5.19943E-002	0.00000E+000	9	...........	1488.88
	253	25.4	-5.30546E-002	2.36184E-007	0.00000E+000	-5.29946E-002	0.00000E+000	9	...........	1488.88
	254	25.5	-5.40542E-002	2.27385E-007	0.00000E+000	-5.39949E-002	0.00000E+000	9	...........	1488.88
	255	25.6	-5.50542E-002	2.26334E-007	0.00000E+000	-5.49951E-002	0.00000E+000	9	...........	1488.88
	256	25.7	-5.60537E-002	2.26101E-007	0.00000E+000	-5.59954E-002	0.00000E+000	9	...........	1488.88
	257	25.8	-5.70563E-002	2.19432E-007	0.00000E+000	-5.69957E-002	0.00000E+000	9	...........	1488.88
	258	25.9	-5.80567E-002	2.15217E-007	0.00000E+000	-5.79959E-002	0.00000E+000	9	...........	1488.88
	259	26	-5.90561E-002	2.09883E-007	0.00000E+000	-5.89962E-002	0.00000E+000	9	...........	1489.08
	260	26.1	-6.00579E-002	2.00117E-007	0.00000E+000	-5.99965E-002	0.00000E+000	9	...........	1489.24
	261	26.2	-6.10570E-002	2.00979E-007	0.00000E+000	-6.09967E-002	0.00000E+000	9	...........	1489.24
	262	26.3	-6.20571E-002	2.04500E-007	0.00000E+000	-6.19970E-002	0.00000E+000	9	...........	1489.24
	263	26.4	-6.30587E-002	1.98521E-007	0.00000E+000	-6.29973E-002	0.00000E+000	9	...........	1489.24
	264	26.5	-6.40572E-002	1.91291E-007	0.00000E+000	-6.39976E-002	0.00000E+000	9	...........	1489.24
	265	26.6	-6.50607E-002	1.87993E-007	0.00000E+000	-6.49978E-002	0.00000E+000	9	...........	1489.24
	266	26.7	-6.60617E-002	1.83199E-007	0.00000E+000	-6.59981E-002	0.00000E+000	9	...........	1489.24
	267	26.8	-6.70620E-002	1.78444E-007	0.00000E+000	-6.69984E-002	0.00000E+000	9	...........	1489.24
	268	26.9	-6.80615E-002	1.76180E-007	0.00000E+000	-6.79986E-002	0.00000E+000	9	...........	1489.24
	269	27	-6.90598E-002	1.77137E-007	0.00000E+000	-6.89989E-002	0.00000E+000	9	...........	1489.09
	270	27.1	-7.00623E-002	1.60914E-007	0.00000E+000	-6.99992E-002	0.00000E+000	9	...........	1488.97
	271	27.2	-7.10650E-002	1.58578E-007	0.00000E+000	-7.09994E-002	0.00000E+000	9	...........	1488.97
	272	27.3	-7.20651E-002	1.55024E-007	0.00000E+000	-7.19997E-002	0.00000E+000	9	...........	1488.97
	273	27.4	-7.30645E-002	1.55497E-007	0.00000E+000	-7.30000E-002	0.00000E+000	9	...........	1488.97
	274	27.5	-7.40645E-002	1.47099E-007	0.00000E+000	-7.40002E-002	0.00000E+000	9	...........	1488.97
	275	27.6	-7.50646E-002	1.43111E-007	0.00000E+000	-7.50005E-002	0.00000E+000	9	...........	1488.97
	276	27.7	-7.60645E-002	1.40341E-007	0.00000E+000	-7.60008E-002	0.00000E+000	9	...........	1488.97
	277	27.8	-7.70653E-002	1.32856E-007	0.00000E+000	-7.70010E-002	0.00000E+000	9	...........	1488.97
	278	27.9	-7.80672E-002	1.35369E-007	0.00000E+000	-7.80013E-002	0.00000E+000	9	...........	1488.97
	279	28	-7.90682E-002	1.29841E-007	0.00000E+000	-7.90016E-002	0.00000E+000	9	...........	1489.12
	280	28.1	-8.00698E-002	1.28601E-007	0.00000E+000	-8.00018E-002	0.00000E+000	9	...........	1489.24
	281	28.2	-8.10683E-002	1.31771E-007	0.00000E+000	-8.10021E-002	0.00000E+000	9	...........	1489.24
	282	28.3	-8.20672E-002	1.25631E-007	0.00000E+000	-8.20024E-002	0.00000E+000	9	...........	1489.24
	283	28.4	-8.30665E-002	1.20804E-007	0.00000E+000	-8.30026E-002	0.00000E+000	9	...........	1489.24
	284	28.5	-8.40669E-002	1.15203E-007	0.00000E+000	-8.40029E-002	0.00000E+000	9	...........	1489.24
	285	28.6	-8.50679E-002	1.09881E-007	0.00000E+000	-8.50032E-002	0.00000E+000	9	...........	1489.24
	286	28.7	-8.60671E-002	1.04075E-007	0.00000E+000	-8.60034E-002	0.00000E+000	9	...........	1489.24
	287	28.8	-8.70671E-002	1.03368E-007	0.00000E+000	-8.70037E-002	0.00000E+000	9	...........	1489.24
	288	28.9	-8.80670E-002	9.84351E-008	0.00000E+000	-8.80040E-002	0.00000E+000	9	...........	1489.24
	289	29	-8.90687E-002	9.51539E-008	0.00000E+000	-8.90042E-002	0.00000E+000	9	...........	1489.09
	290	29.1	-9.00679E-002	9.09382E-008	0.00000E+000	-9.00045E-002	0.00000E+000	9	...........	1488.97
	291	29.2	-9.10676E-002	8.76568E-008	0.00000E+000	-9.10048E-002	0.00000E+000	9	...........	1488.97
	292	29.3	-9.20694E-002	8.19173E-008	0.00000E+000	-9.20050E-002	0.00000E+000	9	...........	1488.97
	293	29.4	-9.30697E-002	7.83690E-008	0.00000E+000	-9.30053E-002	0.00000E+000	9	...........	1488.97
	294	29.5	-9.40687E-002	7.90586E-008	0.00000E+000	-9.40056E-002	0.00000E+000	9	...........	1488.97
	295	29.6	-9.50702E-002	7.66283E-008	0.00000E+000	-9.50058E-002	0.00000E+000	9	...........	1488.97
	296	29.7	-9.60720E-002	6.90201E-008	0.00000E+000	-9.60061E-002	0.00000E+000	9	...........	1488.97
	297	29.8	-9.70604E-002	7.11501E-008	0.00000E+000	-9.69939E-002	0.00000E+000	9	...........	1488.97
	298	29.9	-9.80610E-002	6.86085E-008	0.00000E+000	-9.79941E-002	0.00000E+000	9	...........	1488.97
	299	30	-9.90616E-002	6.21515E-008	0.00000E+000	-9.89944E-002	0.00000E+000	9	...........	1489.12
	300	30.1	-1.00060E-001	5.91205E-008	0.00000E+000	-9.99947E-002	0.00000E+000	9	...........	1489.24
	301	30.2	-1.01060E-001	5.67290E-008	0.00000E+000	-1.00995E-001	0.00000E+000	9	...........	1489.24
	302	30.3	-1.02060E-001	4.77304E-008	0.00000E+000	-1.01995E-001	0.00000E+000	9	...........	1489.24
	303	30.4	-1.03061E-001	5.22075E-008	0.00000E+000	-1.02995E-001	0.00000E+000	9	...........	1489.24
	304	30.5	-1.04065E-001	4.81809E-008	0.00000E+000	-1.03996E-001	0.00000E+000	9	...........	1489.24
	305	30.6	-1.05063E-001	4.02390E-008	0.00000E+000	-1.04996E-001	0.00000E+000	9	...........	1489.24
	306	30.7	-1.06062E-001	3.55506E-008	0.00000E+000	-1.05996E-001	0.00000E+000	9	...........	1489.24
	307	30.8	-1.07060E-001	3.41491E-008	0.00000E+000	-1.06997E-001	0.00000E+000	9	...........	1489.24
	308	30.9	-1.08062E-001	2.80759E-008	0.00000E+000	-1.07997E-001	0.00000E+000	9	...........	1489.24
	309	31	-1.09063E-001	2.25699E-008	0.00000E+000	-1.08997E-001	0.00000E+000	9	...........	1489.14
	310	31.1	-1.10063E-001	1.75200E-008	0.00000E+000	-1.09997E-001	0.00000E+000	9	...........	1489.06
	311	31.2	-1.11064E-001	1.60740E-008	0.00000E+000	-1.10998E-001	0.00000E+000	9	...........	1489.06
	312	31.3	-1.12066E-001	1.64967E-008	0.00000E+000	-1.11998E-001	0.00000E+000	9	...........	1489.06
	313	31.4	-1.13063E-001	1.51007E-008	0.00000E+000	-1.12998E-001	0.00000E+000	9	...........	1489.06
	314	31.5	-1.14065E-001	1.30986E-008	0.00000E+000	-1.13998E-001	0.00000E+000	9	...........	1489.06
	315	31.6	-1.15067E-001	7.54816E-009	0.00000E+000	-1.14999E-001	0.00000E+000	9	...........	1489.06
	316	31.7	-1.16068E-001	2.45835E-010	0.00000E+000	-1.15999E-001	0.00000E+000	9	...........	1489.06
	317	31.8	-1.17068E-001	3.13785E-009	0.00000E+000	-1.16999E-001	0.00000E+000	9	...........	1489.06
	318	31.9	-1.18068E-001	-4.40918E-009	0.00000E+000	-1.17999E-001	0.00000E+000	9	...........	1489.06
	319	32	-1.19068E-001	-8.17995E-009	0.00000E+000	-1.19000E-001	0.00000E+000	9	...........	1489.11
	320	32.1	-1.20066E-001	-1.25847E-008	0.00000E+000	-1.20000E-001	0.00000E+000	9	...........	1489.15
	321	32.2	-1.21068E-001	-1.72620E-008	0.00000E+000	-1.21000E-001	0.00000E+000	9	...........	1489.15
	322	32.3	-1.22069E-001	-1.93976E-008	0.00000E+000	-1.22001E-001	0.00000E+000	9	...........	1489.15
	323	32.4	-1.23068E-001	-2.92916E-008	0.00000E+000	-1.23001E-001	0.00000E+000	9	...........	1489.15
	324	32.5	-1.24070E-001	-2.71393E-008	0.00000E+000	-1.24001E-001	0.00000E+000	9	...........	1489.15
	325	32.6	-1.25070E-001	-2.56432E-008	0.00000E+000	-1.25001E-001	0.00000E+000	9	...........	1489.15
	326	32.7	-1.26070E-001	-3.15663E-008	0.00000E+000	-1.26002E-001	0.00000E+000	9	...........	1489.15
	327	32.8	-1.27069E-001	-3.72836E-008	0.00000E+000	-1.27002E-001	0.00000E+000	9	...........	1489.15
	328	32.9	-1.28070E-001	-4.10933E-008	0.00000E+000	-1.28002E-001	0.00000E+000	9	...........	1489.15
	329	33	-1.29074E-001	-4.30843E-008	0.00000E+000	-1.29002E-001	0.00000E+000	9	...........	1489.15
	330	33.1	-1.30075E-001	-4.49530E-008	0.00000E+000	-1.30003E-001	0.00000E+000	9	...........	1489.15
	331	33.2	-1.31073E-001	-4.13713E-008	0.00000E+000	-1.31003E-001	0.00000E+000	9	...........	1489.15
	332	33.3	-1.32072E-001	-4.57038E-008	0.00000E+000	-1.32003E-001	0.00000E+000	9	...........	1489.15
	333	33.4	-1.33073E-001	-5.28782E-008	0.00000E+000	-1.33004E-001	0.00000E+000	9	...........	1489.15
	334	33.5	-1.34073E-001	-5.57202E-008	0.00000E+000	-1.34004E-001	0.00000E+000	9	...........	1489.15
	335	33.6	-1.35075E-001	-5.96355E-008	0.00000E+000	-1.35004E-001	0.00000E+000	9	...........	1489.15
	336	33.7	-1.36073E-001	-5.97022E-008	0.00000E+000	-1.36004E-001	0.00000E+000	9	...........	1489.15
	337	33.8	-1.37076E-001	-6.66542E-008	0.00000E+000	-1.37005E-001	0.00000E+000	9	...........	1489.15
	338	33.9	-1.38076E-001	-6.66375E-008	0.00000E+000	-1.38005E-001	0.00000E+000	9	...........	1489.15
	339	34	-1.39076E-001	-7.04972E-008	0.00000E+000	-1.39005E-001	0.00000E+000	9	...........	1489.20
	340	34.1	-1.40077E-001	-7.52357E-008	0.00000E+000	-1.40005E-001	0.00000E+000	9	...........	1489.24
	341	34.2	-1.41076E-001	-8.00242E-008	0.00000E+000	-1.41006E-001	0.00000E+000	9	...........	1489.24
	342	34.3	-1.42079E-001	-8.56914E-008	0.00000E+000	-1.42006E-001	0.00000E+000	9	...........	1489.24
	343	34.4	-1.43078E-001	-8.58026E-008	0.00000E+000	-1.43006E-001	0.00000E+000	9	...........	1489.24
	344	34.5	-1.44065E-001	-8.73765E-008	0.00000E+000	-1.43994E-001	0.00000E+000	9	...........	1489.24
	345	34.6	-1.45064E-001	-9.49458E-008	0.00000E+000	-1.44994E-001	0.00000E+000	9	...........	1489.24
	346	34.7	-1.46066E-001	-1.01036E-007	0.00000E+000	-1.45994E-001	0.00000E+000	9	...........	1489.24
	347	34.8	-1.47068E-001	-1.03305E-007	0.00000E+000	-1.46995E-001	0.00000E+000	9	...........	1489.24
	348	34.9	-1.48069E-001	-1.07988E-007	0.00000E+000	-1.47995E-001	0.00000E+000	9	...........	1489.24
	349	35	-1.49068E-001	-1.15807E-007	0.00000E+000	-1.48995E-001	0.00000E+000	9	...........	1489.19
	350	35.1	-1.50068E-001	-1.16742E-007	0.00000E+000	-1.49996E-001	0.00000E+000	9	...........	1489.15
	351	35.2	-1.51068E-001	-1.29022E-007	0.00000E+000	-1.50996E-001	0.00000E+000	9	...........	1489.15
	352	35.3	-1.52066E-001	-1.23110E-007	0.00000E+000	-1.51996E-001	0.00000E+000	9	...........	1489.15
	353	35.4	-1.53068E-001	-1.30690E-007	0.00000E+000	-1.52996E-001	0.00000E+000	9	...........	1489.15
	354	35.5	-1.54067E-001	-1.38382E-007	0.00000E+000	-1.53997E-001	0.00000E+000	9	...........	1489.15
	355	35.6	-1.55069E-001	-1.36563E-007	0.00000E+000	-1.54997E-001	0.00000E+000	9	...........	1489.15
	356	35.7	-1.56069E-001	-1.42219E-007	0.00000E+000	-1.55997E-001	0.00000E+000	9	...........	1489.15
	357	35.8	-1.57069E-001	-1.51223E-007	0.00000E+000	-1.56997E-001	0.00000E+000	9	...........	1489.15
	358	35.9	-1.58069E-001	-1.50522E-007	0.00000E+000	-1.57998E-001	0.00000E+000	9	...........	1489.15
	359	36	-1.59070E-001	-1.60033E-007	0.00000E+000	-1.58998E-001	0.00000E+000	9	...........	1489.20
	360	36.1	-1.60072E-001	-1.65422E-007	0.00000E+000	-1.59998E-001	0.00000E+000	9	...........	1489.24
	361	36.2	-1.61072E-001	-1.70060E-007	0.00000E+000	-1.60998E-001	0.00000E+000	9	...........	1489.24
	362	36.3	-1.62073E-001	-1.82824E-007	0.00000E+000	-1.61999E-001	0.00000E+000	9	...........	1489.24
	363	36.4	-1.63074E-001	-1.87457E-007	0.00000E+000	-1.62999E-001	0.00000E+000	9	...........	1489.24
	364	36.5	-1.64072E-001	-1.91339E-007	0.00000E+000	-1.63999E-001	0.00000E+000	9	...........	1489.24
	365	36.6	-1.65071E-001	-1.93235E-007	0.00000E+000	-1.65000E-001	0.00000E+000	9	...........	1489.24
	366	36.7	-1.66071E-001	-1.99492E-007	0.00000E+000	-1.66000E-001	0.00000E+000	9	...........	1489.24
	367	36.8	-1.67073E-001	-2.06288E-007	0.00000E+000	-1.67000E-001	0.00000E+000	9	...........	1489.24
	368	36.9	-1.68072E-001	-2.13012E-007	0.00000E+000	-1.68000E-001	0.00000E+000	9	...........	1489.24
	369	37	-1.69072E-001	-2.18518E-007	0.00000E+000	-1.69001E-001	0.00000E+000	9	...........	1489.19
	370	37.1	-1.70074E-001	-2.27900E-007	0.00000E+000	-1.70001E-001	0.00000E+000	9	...........	1489.15
	371	37.2	-1.71075E-001	-2.38540E-007	0.00000E+000	-1.71001E-001	0.00000E+000	9	...........	1489.15
	372	37.3	-1.72075E-001	-2.51993E-007	0.00000E+000	-1.72001E-001	0.00000E+000	9	...........	1489.15
	373	37.4	-1.73075E-001	-2.53456E-007	0.00000E+000	-1.73002E-001	0.00000E+000	9	...........	1489.15
	374	37.5	-1.74074E-001	-2.55914E-007	0.00000E+000	-1.74002E-001	0.00000E+000	9	...........	1489.15
	375	37.6	-1.75077E-001	-2.60853E-007	0.00000E+000	-1.75002E-001	0.00000E+000	9	...........	1489.15
	376	37.7	-1.76077E-001	-2.69006E-007	0.00000E+000	-1.76002E-001	0.00000E+000	9	...........	1489.15
	377	37.8	-1.77075E-001	-2.76236E-007	0.00000E+000	-1.77003E-001	0.00000E+000	9	...........	1489.15
	378	37.9	-1.78077E-001	-2.86920E-007	0.00000E+000	-1.78003E-001	0.00000E+000	9	...........	1489.15
	379	38	-1.79077E-001	-2.95223E-007	0.00000E+000	-1.79003E-001	0.00000E+000	9	...........	1489.20
	380	38.1	-1.80079E-001	-3.02375E-007	0.00000E+000	-1.80004E-001	0.00000E+000	9	...........	1489.24
	381	38.2	-1.81082E-001	-3.06647E-007	0.00000E+000	-1.81004E-001	0.00000E+000	9	...........	1489.24
[...]
	1006	100.7	-6.03829E-003	5.39500E-007	0.00000E+000	-5.99455E-003	0.00000E+000	9	...........	1489.24
	1007	100.8	-7.03868E-003	5.22754E-007	0.00000E+000	-6.99481E-003	0.00000E+000	9	...........	1489.24
	1008	100.9	-8.03925E-003	5.17399E-007	0.00000E+000	-7.99508E-003	0.00000E+000	9	...........	1489.24
	1009	101	-9.03966E-003	5.07716E-007	0.00000E+000	-8.99535E-003	0.00000E+000	9	...........	1488.93
	1010	101.1	-1.00397E-002	4.94474E-007	0.00000E+000	-9.99562E-003	0.00000E+000	9	...........	1488.78
	1011	101.2	-1.10401E-002	4.82561E-007	0.00000E+000	-1.09959E-002	0.00000E+000	9	...........	1488.78
	1012	101.3	-1.20408E-002	4.76271E-007	0.00000E+000	-1.19962E-002	0.00000E+000	9	...........	1488.78
	1013	101.4	-1.30422E-002	4.63268E-007	0.00000E+000	-1.29964E-002	0.00000E+000	9	...........	1488.78
	1014	101.5	-1.40432E-002	4.61599E-007	0.00000E+000	-1.39967E-002	0.00000E+000	9	...........	1488.78
	1015	101.6	-1.50446E-002	4.57139E-007	0.00000E+000	-1.49970E-002	0.00000E+000	9	...........	1488.78
	1016	101.7	-1.60461E-002	4.55187E-007	0.00000E+000	-1.59972E-002	0.00000E+000	9	...........	1488.78
	1017	101.8	-1.70443E-002	4.47062E-007	0.00000E+000	-1.69975E-002	0.00000E+000	9	...........	1488.78
	1018	101.9	-1.80431E-002	4.37601E-007	0.00000E+000	-1.79978E-002	0.00000E+000	9	...........	1488.78
	1019	102	-1.90458E-002	4.33030E-007	0.00000E+000	-1.89980E-002	0.00000E+000	9	...........	1489.09
	1020	102.1	-2.00472E-002	4.23286E-007	0.00000E+000	-1.99983E-002	0.00000E+000	9	...........	1489.24
	1021	102.2	-2.10478E-002	4.17724E-007	0.00000E+000	-2.09986E-002	0.00000E+000	9	...........	1489.24
	1022	102.3	-2.20499E-002	4.11251E-007	0.00000E+000	-2.19988E-002	0.00000E+000	9	...........	1489.24
	1023	102.4	-2.30487E-002	4.05533E-007	0.00000E+000	-2.29991E-002	0.00000E+000	9	...........	1489.24
	1024	102.5	-2.40484E-002	3.95000E-007	0.00000E+000	-2.39994E-002	0.00000E+000	9	...........	1489.24
	1025	102.6	-2.50489E-002	3.91073E-007	0.00000E+000	-2.49996E-002	0.00000E+000	9	...........	1489.24
	1026	102.7	-2.60521E-002	3.88087E-007	0.00000E+000	-2.59999E-002	0.00000E+000	9	...........	1489.24
	1027	102.8	-2.70511E-002	3.79650E-007	0.00000E+000	-2.70002E-002	0.00000E+000	9	...........	1489.24
	1028	102.9	-2.80508E-002	3.75340E-007	0.00000E+000	-2.80004E-002	0.00000E+000	9	...........	1489.24
	1029	103	-2.90530E-002	3.71219E-007	0.00000E+000	-2.90007E-002	0.00000E+000	9	...........	1488.99
	1030	103.1	-3.00511E-002	3.70623E-007	0.00000E+000	-3.00010E-002	0.00000E+000	9	...........	1488.88
	1031	103.2	-3.10509E-002	3.66280E-007	0.00000E+000	-3.10012E-002	0.00000E+000	9	...........	1488.88
	1032	103.3	-3.20533E-002	3.60079E-007	0.00000E+000	-3.20015E-002	0.00000E+000	9	...........	1488.88
	1033	103.4	-3.30554E-002	3.53433E-007	0.00000E+000	-3.30018E-002	0.00000E+000	9	...........	1488.88
	1034	103.5	-3.40554E-002	3.48672E-007	0.00000E+000	-3.40020E-002	0.00000E+000	9	...........	1488.88
	1035	103.6	-3.50568E-002	3.43338E-007	0.00000E+000	-3.50023E-002	0.00000E+000	9	...........	1488.88
	1036	103.7	-3.60536E-002	3.38861E-007	0.00000E+000	-3.60026E-002	0.00000E+000	9	...........	1488.88
	1037	103.8	-3.70554E-002	3.36631E-007	0.00000E+000	-3.70028E-002	0.00000E+000	9	...........	1488.88
	1038	103.9	-3.80593E-002	3.28422E-007	0.00000E+000	-3.80031E-002	0.00000E+000	9	...........	1488.88
	1039	104	-3.90617E-002	3.23934E-007	0.00000E+000	-3.90034E-002	0.00000E+000	9	...........	1489.12
	1040	104.1	-4.00602E-002	3.14329E-007	0.00000E+000	-4.00036E-002	0.00000E+000	9	...........	1489.24
	1041	104.2	-4.10587E-002	3.12972E-007	0.00000E+000	-4.10039E-002	0.00000E+000	9	...........	1489.24
	1042	104.3	-4.20597E-002	3.05203E-007	0.00000E+000	-4.20042E-002	0.00000E+000	9	...........	1489.24
	1043	104.4	-4.30603E-002	3.04758E-007	0.00000E+000	-4.30044E-002	0.00000E+000	9	...........	1489.24
	1044	104.5	-4.40635E-002	3.00642E-007	0.00000E+000	-4.40047E-002	0.00000E+000	9	...........	1489.24
	1045	104.6	-4.50637E-002	2.94258E-007	0.00000E+000	-4.50050E-002	0.00000E+000	9	...........	1489.24
	1046	104.7	-4.60640E-002	2.91605E-007	0.00000E+000	-4.60052E-002	0.00000E+000	9	...........	1489.24
	1047	104.8	-4.70651E-002	2.97522E-007	0.00000E+000	-4.70055E-002	0.00000E+000	9	...........	1489.24
	1048	104.9	-4.80654E-002	2.92578E-007	0.00000E+000	-4.80058E-002	0.00000E+000	9	...........	1489.24
	1049	105	-4.90640E-002	2.89964E-007	0.00000E+000	-4.90060E-002	0.00000E+000	9	...........	1489.05
	1050	105.1	-5.00516E-002	2.86394E-007	0.00000E+000	-4.99938E-002	0.00000E+000	9	...........	1488.97
	1051	105.2	-5.10523E-002	2.85342E-007	0.00000E+000	-5.09941E-002	0.00000E+000	9	...........	1488.97
	1052	105.3	-5.20529E-002	2.77256E-007	0.00000E+000	-5.19943E-002	0.00000E+000	9	...........	1488.97
	1053	105.4	-5.30534E-002	2.69837E-007	0.00000E+000	-5.29946E-002	0.00000E+000	9	...........	1488.97
	1054	105.5	-5.40548E-002	2.63630E-007	0.00000E+000	-5.39949E-002	0.00000E+000	9	...........	1488.97
	1055	105.6	-5.50556E-002	2.61706E-007	0.00000E+000	-5.49951E-002	0.00000E+000	9	...........	1488.97
	1056	105.7	-5.60553E-002	2.53614E-007	0.00000E+000	-5.59954E-002	0.00000E+000	9	...........	1488.97
	1057	105.8	-5.70576E-002	2.50043E-007	0.00000E+000	-5.69957E-002	0.00000E+000	9	...........	1488.97
	1058	105.9	-5.80580E-002	2.51078E-007	0.00000E+000	-5.79959E-002	0.00000E+000	9	...........	1488.97
	1059	106	-5.90557E-002	2.47407E-007	0.00000E+000	-5.89962E-002	0.00000E+000	9	...........	1489.15
	1060	106.1	-6.00571E-002	2.40416E-007	0.00000E+000	-5.99965E-002	0.00000E+000	9	...........	1489.24
	1061	106.2	-6.10575E-002	2.42530E-007	0.00000E+000	-6.09967E-002	0.00000E+000	9	...........	1489.24
	1062	106.3	-6.20579E-002	2.39410E-007	0.00000E+000	-6.19970E-002	0.00000E+000	9	...........	1489.24
	1063	106.4	-6.30605E-002	2.35678E-007	0.00000E+000	-6.29973E-002	0.00000E+000	9	...........	1489.24
	1064	106.5	-6.40599E-002	2.27769E-007	0.00000E+000	-6.39976E-002	0.00000E+000	9	...........	1489.24
	1065	106.6	-6.50621E-002	2.24321E-007	0.00000E+000	-6.49978E-002	0.00000E+000	9	...........	1489.24
	1066	106.7	-6.60622E-002	2.18526E-007	0.00000E+000	-6.59981E-002	0.00000E+000	9	...........	1489.24
	1067	106.8	-6.70623E-002	2.10217E-007	0.00000E+000	-6.69984E-002	0.00000E+000	9	...........	1489.24
	1068	106.9	-6.80610E-002	2.13142E-007	0.00000E+000	-6.79986E-002	0.00000E+000	9	...........	1489.24
	1069	107	-6.90608E-002	2.13281E-007	0.00000E+000	-6.89989E-002	0.00000E+000	9	...........	1489.12
	1070	107.1	-7.00633E-002	2.05323E-007	0.00000E+000	-6.99992E-002	0.00000E+000	9	...........	1489.06
	1071	107.2	-7.10667E-002	1.96914E-007	0.00000E+000	-7.09994E-002	0.00000E+000	9	...........	1489.06
	1072	107.3	-7.20652E-002	1.94583E-007	0.00000E+000	-7.19997E-002	0.00000E+000	9	...........	1489.06
	1073	107.4	-7.30646E-002	1.90457E-007	0.00000E+000	-7.30000E-002	0.00000E+000	9	...........	1489.06
	1074	107.5	-7.40650E-002	1.87125E-007	0.00000E+000	-7.40002E-002	0.00000E+000	9	...........	1489.06
	1075	107.6	-7.50652E-002	1.80062E-007	0.00000E+000	-7.50005E-002	0.00000E+000	9	...........	1489.06
	1076	107.7	-7.60656E-002	1.77420E-007	0.00000E+000	-7.60008E-002	0.00000E+000	9	...........	1489.06
	1077	107.8	-7.70661E-002	1.73210E-007	0.00000E+000	-7.70010E-002	0.00000E+000	9	...........	1489.06
	1078	107.9	-7.80694E-002	1.72743E-007	0.00000E+000	-7.80013E-002	0.00000E+000	9	...........	1489.06
	1079	108	-7.90698E-002	1.69723E-007	0.00000E+000	-7.90016E-002	0.00000E+000	9	...........	1489.18
	1080	108.1	-8.00696E-002	1.64890E-007	0.00000E+000	-8.00018E-002	0.00000E+000	9	...........	1489.24
	1081	108.2	-8.10676E-002	1.66192E-007	0.00000E+000	-8.10021E-002	0.00000E+000	9	...........	1489.24
	1082	108.3	-8.20666E-002	1.58100E-007	0.00000E+000	-8.20024E-002	0.00000E+000	9	...........	1489.24
	1083	108.4	-8.30662E-002	1.61181E-007	0.00000E+000	-8.30026E-002	0.00000E+000	9	...........	1489.24
	1084	108.5	-8.40675E-002	1.52888E-007	0.00000E+000	-8.40029E-002	0.00000E+000	9	...........	1489.24
	1085	108.6	-8.50693E-002	1.52115E-007	0.00000E+000	-8.50032E-002	0.00000E+000	9	...........	1489.24
	1086	108.7	-8.60691E-002	1.51915E-007	0.00000E+000	-8.60034E-002	0.00000E+000	9	...........	1489.24
	1087	108.8	-8.70692E-002	1.46515E-007	0.00000E+000	-8.70037E-002	0.00000E+000	9	...........	1489.24
	1088	108.9	-8.80709E-002	1.43345E-007	0.00000E+000	-8.80040E-002	0.00000E+000	9	...........	1489.24
	1089	109	-8.90723E-002	1.40798E-007	0.00000E+000	-8.90042E-002	0.00000E+000	9	...........	1489.18
	1090	109.1	-9.00701E-002	1.38200E-007	0.00000E+000	-9.00045E-002	0.00000E+000	9	...........	1489.15
	1091	109.2	-9.10702E-002	1.33506E-007	0.00000E+000	-9.10048E-002	0.00000E+000	9	...........	1489.15
	1092	109.3	-9.20716E-002	1.34591E-007	0.00000E+000	-9.20050E-002	0.00000E+000	9	...........	1489.15
	1093	109.4	-9.30713E-002	1.32928E-007	0.00000E+000	-9.30053E-002	0.00000E+000	9	...........	1489.15
	1094	109.5	-9.40706E-002	1.26098E-007	0.00000E+000	-9.40056E-002	0.00000E+000	9	...........	1489.15
	1095	109.6	-9.50703E-002	1.28924E-007	0.00000E+000	-9.50058E-002	0.00000E+000	9	...........	1489.15
	1096	109.7	-9.60727E-002	1.21727E-007	0.00000E+000	-9.60061E-002	0.00000E+000	9	...........	1489.15
	1097	109.8	-9.70630E-002	1.25153E-007	0.00000E+000	-9.69939E-002	0.00000E+000	9	...........	1489.15
	1098	109.9	-9.80632E-002	1.13340E-007	0.00000E+000	-9.79941E-002	0.00000E+000	9	...........	1489.15
	1099	110	-9.90635E-002	1.15665E-007	0.00000E+000	-9.89944E-002	0.00000E+000	9	...........	1488.90
	1100	110.1	-1.00062E-001	1.09603E-007	0.00000E+000	-9.99947E-002	0.00000E+000	9	...........	1488.78
	1101	110.2	-1.01062E-001	1.06989E-007	0.00000E+000	-1.00995E-001	0.00000E+000	9	...........	1488.78
	1102	110.3	-1.02063E-001	1.09069E-007	0.00000E+000	-1.01995E-001	0.00000E+000	9	...........	1488.78
	1103	110.4	-1.03064E-001	1.02484E-007	0.00000E+000	-1.02995E-001	0.00000E+000	9	...........	1488.78
	1104	110.5	-1.04067E-001	9.97477E-008	0.00000E+000	-1.03996E-001	0.00000E+000	9	...........	1488.78
	1105	110.6	-1.05064E-001	9.50203E-008	0.00000E+000	-1.04996E-001	0.00000E+000	9	...........	1488.78
	1106	110.7	-1.06065E-001	9.58935E-008	0.00000E+000	-1.05996E-001	0.00000E+000	9	...........	1488.78
	1107	110.8	-1.07062E-001	9.36022E-008	0.00000E+000	-1.06997E-001	0.00000E+000	9	...........	1488.78
	1108	110.9	-1.08064E-001	8.88137E-008	0.00000E+000	-1.07997E-001	0.00000E+000	9	...........	1488.78
	1109	111	-1.09067E-001	8.05158E-008	0.00000E+000	-1.08997E-001	0.00000E+000	9	...........	1489.10
	1110	111.1	-1.10068E-001	7.42146E-008	0.00000E+000	-1.09997E-001	0.00000E+000	9	...........	1489.24
	1111	111.2	-1.11067E-001	7.36250E-008	0.00000E+000	-1.10998E-001	0.00000E+000	9	...........	1489.24
	1112	111.3	-1.12068E-001	6.67231E-008	0.00000E+000	-1.11998E-001	0.00000E+000	9	...........	1489.24
	1113	111.4	-1.13066E-001	7.16451E-008	0.00000E+000	-1.12998E-001	0.00000E+000	9	...........	1489.24
	1114	111.5	-1.14065E-001	6.81691E-008	0.00000E+000	-1.13998E-001	0.00000E+000	9	...........	1489.24
	1115	111.6	-1.15069E-001	6.36253E-008	0.00000E+000	-1.14999E-001	0.00000E+000	9	...........	1489.24
	1116	111.7	-1.16069E-001	6.53439E-008	0.00000E+000	-1.15999E-001	0.00000E+000	9	...........	1489.24
	1117	111.8	-1.17069E-001	5.91983E-008	0.00000E+000	-1.16999E-001	0.00000E+000	9	...........	1489.24
	1118	111.9	-1.18068E-001	5.58114E-008	0.00000E+000	-1.17999E-001	0.00000E+000	9	...........	1489.24
	1119	112	-1.19069E-001	5.10006E-008	0.00000E+000	-1.19000E-001	0.00000E+000	9	...........	1488.92
	1120	112.1	-1.20068E-001	5.08337E-008	0.00000E+000	-1.20000E-001	0.00000E+000	9	...........	1488.78
	1121	112.2	-1.21070E-001	4.12623E-008	0.00000E+000	-1.21000E-001	0.00000E+000	9	...........	1488.78
	1122	112.3	-1.22072E-001	4.19742E-008	0.00000E+000	-1.22001E-001	0.00000E+000	9	...........	1488.78
	1123	112.4	-1.23071E-001	4.89651E-008	0.00000E+000	-1.23001E-001	0.00000E+000	9	...........	1488.78
	1124	112.5	-1.24072E-001	5.01775E-008	0.00000E+000	-1.24001E-001	0.00000E+000	9	...........	1488.78
	1125	112.6	-1.25071E-001	3.94548E-008	0.00000E+000	-1.25001E-001	0.00000E+000	9	...........	1488.78
	1126	112.7	-1.26071E-001	3.34872E-008	0.00000E+000	-1.26002E-001	0.00000E+000	9	...........	1488.78
	1127	112.8	-1.27073E-001	3.24973E-008	0.00000E+000	-1.27002E-001	0.00000E+000	9	...........	1488.78
	1128	112.9	-1.28073E-001	2.95553E-008	0.00000E+000	-1.28002E-001	0.00000E+000	9	...........	1488.78
	1129	113	-1.29074E-001	2.52784E-008	0.00000E+000	-1.29002E-001	0.00000E+000	9	...........	1489.10
	1130	113.1	-1.30074E-001	1.99949E-008	0.00000E+000	-1.30003E-001	0.00000E+000	9	...........	1489.24
	1131	113.2	-1.31075E-001	1.21197E-008	0.00000E+000	-1.31003E-001	0.00000E+000	9	...........	1489.24
	1132	113.3	-1.32073E-001	1.36714E-008	0.00000E+000	-1.32003E-001	0.00000E+000	9	...........	1489.24
	1133	113.4	-1.33074E-001	1.37660E-008	0.00000E+000	-1.33004E-001	0.00000E+000	9	...........	1489.24
	1134	113.5	-1.34076E-001	2.70405E-009	0.00000E+000	-1.34004E-001	0.00000E+000	9	...........	1489.24
	1135	113.6	-1.35077E-001	-1.23912E-009	0.00000E+000	-1.35004E-001	0.00000E+000	9	...........	1489.24
	1136	113.7	-1.36076E-001	-5.31574E-009	0.00000E+000	-1.36004E-001	0.00000E+000	9	...........	1489.24
	1137	113.8	-1.37077E-001	-2.43484E-009	0.00000E+000	-1.37005E-001	0.00000E+000	9	...........	1489.24
	1138	113.9	-1.38078E-001	-5.28793E-009	0.00000E+000	-1.38005E-001	0.00000E+000	9	...........	1489.24
	1139	114	-1.39077E-001	-1.05047E-008	0.00000E+000	-1.39005E-001	0.00000E+000	9	...........	1488.92
	1140	114.1	-1.40077E-001	-1.32632E-008	0.00000E+000	-1.40005E-001	0.00000E+000	9	...........	1488.78
	1141	114.2	-1.41077E-001	-1.18061E-008	0.00000E+000	-1.41006E-001	0.00000E+000	9	...........	1488.78
	1142	114.3	-1.42080E-001	-2.16667E-008	0.00000E+000	-1.42006E-001	0.00000E+000	9	...........	1488.78
	1143	114.4	-1.43080E-001	-2.11440E-008	0.00000E+000	-1.43006E-001	0.00000E+000	9	...........	1488.78
	1144	114.5	-1.44067E-001	-2.08659E-008	0.00000E+000	-1.43994E-001	0.00000E+000	9	...........	1488.78
	1145	114.6	-1.45066E-001	-2.32907E-008	0.00000E+000	-1.44994E-001	0.00000E+000	9	...........	1488.78
	1146	114.7	-1.46067E-001	-2.57878E-008	0.00000E+000	-1.45994E-001	0.00000E+000	9	...........	1488.78
	1147	114.8	-1.47069E-001	-3.55762E-008	0.00000E+000	-1.46995E-001	0.00000E+000	9	...........	1488.78
	1148	114.9	-1.48070E-001	-4.03814E-008	0.00000E+000	-1.47995E-001	0.00000E+000	9	...........	1488.78
	1149	115	-1.49070E-001	-4.67271E-008	0.00000E+000	-1.48995E-001	0.00000E+000	9	...........	1489.10
	1150	115.1	-1.50070E-001	-4.33012E-008	0.00000E+000	-1.49996E-001	0.00000E+000	9	...........	1489.24
	1151	115.2	-1.51070E-001	-4.89406E-008	0.00000E+000	-1.50996E-001	0.00000E+000	9	...........	1489.24
	1152	115.3	-1.52066E-001	-5.05257E-008	0.00000E+000	-1.51996E-001	0.00000E+000	9	...........	1489.24
	1153	115.4	-1.53068E-001	-5.80894E-008	0.00000E+000	-1.52996E-001	0.00000E+000	9	...........	1489.24
	1154	115.5	-1.54070E-001	-5.75499E-008	0.00000E+000	-1.53997E-001	0.00000E+000	9	...........	1489.24
	1155	115.6	-1.55071E-001	-6.44629E-008	0.00000E+000	-1.54997E-001	0.00000E+000	9	...........	1489.24
	1156	115.7	-1.56070E-001	-6.90012E-008	0.00000E+000	-1.55997E-001	0.00000E+000	9	...........	1489.24
	1157	115.8	-1.57070E-001	-6.97798E-008	0.00000E+000	-1.56997E-001	0.00000E+000	9	...........	1489.24
	1158	115.9	-1.58070E-001	-7.60866E-008	0.00000E+000	-1.57998E-001	0.00000E+000	9	...........	1489.24
	1159	116	-1.59069E-001	-8.39395E-008	0.00000E+000	-1.58998E-001	0.00000E+000	9	...........	1488.92
	1160	116.1	-1.60071E-001	-8.25825E-008	0.00000E+000	-1.59998E-001	0.00000E+000	9	...........	1488.78
	1161	116.2	-1.61072E-001	-9.20927E-008	0.00000E+000	-1.60998E-001	0.00000E+000	9	...........	1488.78
	1162	116.3	-1.62072E-001	-9.60192E-008	0.00000E+000	-1.61999E-001	0.00000E+000	9	...........	1488.78
	1163	116.4	-1.63074E-001	-1.00713E-007	0.00000E+000	-1.62999E-001	0.00000E+000	9	...........	1488.78
	1164	116.5	-1.64073E-001	-9.96454E-008	0.00000E+000	-1.63999E-001	0.00000E+000	9	...........	1488.78
	1165	116.6	-1.65072E-001	-1.08516E-007	0.00000E+000	-1.65000E-001	0.00000E+000	9	...........	1488.78
	1166	116.7	-1.66071E-001	-1.14773E-007	0.00000E+000	-1.66000E-001	0.00000E+000	9	...........	1488.78
	1167	116.8	-1.67074E-001	-1.24161E-007	0.00000E+000	-1.67000E-001	0.00000E+000	9	...........	1488.78
	1168	116.9	-1.68073E-001	-1.26602E-007	0.00000E+000	-1.68000E-001	0.00000E+000	9	...........	1488.78
	1169	117	-1.69073E-001	-1.33476E-007	0.00000E+000	-1.69001E-001	0.00000E+000	9	...........	1489.11
	1170	117.1	-1.70073E-001	-1.38682E-007	0.00000E+000	-1.70001E-001	0.00000E+000	9	...........	1489.24
	1171	117.2	-1.71073E-001	-1.47530E-007	0.00000E+000	-1.71001E-001	0.00000E+000	9	...........	1489.24
	1172	117.3	-1.72074E-001	-1.59004E-007	0.00000E+000	-1.72001E-001	0.00000E+000	9	...........	1489.24
	1173	117.4	-1.73075E-001	-1.58453E-007	0.00000E+000	-1.73002E-001	0.00000E+000	9	...........	1489.24
	1174	117.5	-1.74075E-001	-1.67046E-007	0.00000E+000	-1.74002E-001	0.00000E+000	9	...........	1489.24
	1175	117.6	-1.75076E-001	-1.72385E-007	0.00000E+000	-1.75002E-001	0.00000E+000	9	...........	1489.24
	1176	117.7	-1.76079E-001	-1.80455E-007	0.00000E+000	-1.76002E-001	0.00000E+000	9	...........	1489.24
	1177	117.8	-1.77077E-001	-1.86839E-007	0.00000E+000	-1.77003E-001	0.00000E+000	9	...........	1489.24
	1178	117.9	-1.78078E-001	-1.94781E-007	0.00000E+000	-1.78003E-001	0.00000E+000	9	...........	1489.24
	1179	118	-1.79079E-001	-2.05565E-007	0.00000E+000	-1.79003E-001	0.00000E+000	9	...........	1488.92
	1180	118.1	-1.80080E-001	-2.13007E-007	0.00000E+000	-1.80004E-001	0.00000E+000	9	...........	1488.78
	1181	118.2	-1.81082E-001	-2.17061E-007	0.00000E+000	-1.81004E-001	0.00000E+000	9	...........	1488.78
	1182	118.3	-1.82081E-001	-2.23334E-007	0.00000E+000	-1.82004E-001	0.00000E+000	9	...........	1488.78
	1183	118.4	-1.83081E-001	-2.33162E-007	0.00000E+000	-1.83004E-001	0.00000E+000	9	...........	1488.78
	1184	118.5	-1.84079E-001	-2.48183E-007	0.00000E+000	-1.84005E-001	0.00000E+000	9	...........	1488.78
	1185	118.6	-1.85080E-001	-2.54696E-007	0.00000E+000	-1.85005E-001	0.00000E+000	9	...........	1488.78
	1186	118.7	-1.86079E-001	-2.64735E-007	0.00000E+000	-1.86005E-001	0.00000E+000	9	...........	1488.78
	1187	118.8	-1.87081E-001	-2.82109E-007	0.00000E+000	-1.87005E-001	0.00000E+000	9	...........	1488.78
	1188	118.9	-1.88081E-001	-2.93938E-007	0.00000E+000	-1.88006E-001	0.00000E+000	9	...........	1488.78
	1189	119	-1.89081E-001	-2.99022E-007	0.00000E+000	-1.89006E-001	0.00000E+000	9	...........	1489.11
	1190	119.1	-1.90081E-001	-3.09311E-007	0.00000E+000	-1.90006E-001	0.00000E+000	9	...........	1489.24
	1191	119.2	-1.91069E-001	-3.20779E-007	0.00000E+000	-1.90994E-001	0.00000E+000	9	...........	1489.24
	1192	119.3	-1.92068E-001	-3.34154E-007	0.00000E+000	-1.91994E-001	0.00000E+000	9	...........	1489.24
	1193	119.4	-1.93071E-001	-3.53369E-007	0.00000E+000	-1.92995E-001	0.00000E+000	9	...........	1489.24
	1194	119.5	-1.94072E-001	-3.61033E-007	0.00000E+000	-1.93995E-001	0.00000E+000	9	...........	1489.24
	1195	119.6	-1.95072E-001	-3.82317E-007	0.00000E+000	-1.94995E-001	0.00000E+000	9	...........	1489.24
	1196	119.7	-1.96074E-001	-3.94575E-007	0.00000E+000	-1.95995E-001	0.00000E+000	9	...........	1489.24
	1197	119.8	-1.97072E-001	-4.06693E-007	0.00000E+000	-1.96996E-001	0.00000E+000	9	...........	1489.24
	1198	119.9	-1.98075E-001	-4.28111E-007	0.00000E+000	-1.97996E-001	0.00000E+000	9	...........	1489.24
	1199	120	-1.99075E-001	-4.41970E-007	0.00000E+000	-1.98996E-001	0.00000E+000	9	...........	1488.85
	1200	120.1	-2.00075E-001	-4.56525E-007	0.00000E+000	-1.99996E-001	0.00000E+000	9	...........	1488.69
CURVE4	TABLE
	Pt	T	Vf	Im	Vu	Sig	Ach	IERange	Over	Temp
	#	s	V vs. Ref.	A	V	V	V	#	bits	deg C
	1201	120.2	-2.00078E-001	-1.38176E-007	0.00000E+000	-1.99996E-001	0.00000E+000	9	...........	1488.69