File: input/CV_ECSA_#1_#6.DTA
EXPLAIN
TAG	CV
TITLE	LABEL	ECSA	Test Identifier
DATE	LABEL	20.8.2024	Date
TIME	LABEL	8:38:47	Time
NOTES	NOTES	1	Notes...

PSTAT	PSTAT	IFC1010-36105	Potentiostat
VINIT	POTEN	-2.00000E-001	F	A Potential (V)
VLIMIT1	POTEN	0.00000E+000	F	A Potential (V)
VLIMIT2	POTEN	-2.00000E-001	F	A Potential (V)
VFINAL	POTEN	-2.00000E-001	F	A Potential (V)
SCANRATE	QUANT	5.99999E+001	A Real Number
STEPSIZE	QUANT	1.00000E+000	Step Size (mV)
CYCLES	IQUANT	3	Cycles (#)
IMODE	SELECTOR	1	I/E Range Mode
IRANGE	QUANT	3.00000E-001	Max Current (mA)
AREA	QUANT	1.00000E+000	Sample Area (cm^2)
EQDELAY	QUANT	0.00000E+000	Equil. Time (s)
IRCOMP	SELECTOR	0	IRComp
PFCOR	QUANT	5.00000E+001	PF Corr. (ohm)
SAMPLINGMODE	SELECTOR	2	Sampling Mode
EOC	QUANT	-0.1790659	Open Circuit (V)
ELECTRODETYPE	SELECTOR	0	Electrode Type
STRIPPING	TOGGLE	F	Used for Stripping
SEQUENCER	TOGGLE	TRUE	Run as Sequence
PSTATMODEL	IQUANT	64	Pstat Model
PSTATSECTION	LABEL	IFC1010-36105	Pstat Section
PSTATSERIALNO	LABEL	36105	Pstat Serial Number
CTRLMODE	IQUANT	1	Control Mode
ELECTROMETER	IQUANT	0	RE=0 or CS=1
IESTAB	IQUANT	2	I/E Stability
CASPEED	IQUANT	4	Control Amp Speed
CONVENTION	IQUANT	1	Current Convention
ICHRANGE	IQUANT	2	Ich Range
ICHRANGEMODE	TOGGLE	F	Ich Auto Range
ICHOFFSETENABLE	TOGGLE	F	Ich Offset Enable
ICHOFFSET	QUANT	0	Ich Offset (V)
ICHFILTER	IQUANT	3	Ich Filter
VCHRANGE	IQUANT	1	Vch Range
VCHRANGEMODE	TOGGLE	F	Vch Auto Range
VCHOFFSETENABLE	TOGGLE	F	Vch Offset Enable
VCHOFFSET	QUANT	0	Vch Offset (V)
VCHFILTER	IQUANT	3	Vch Filter
IERANGELOWERLIMIT	IQUANT	4	I/E Range Lower Limit
IERANGEMODE	TOGGLE	F	I/E AutoRange
IERANGE	IQUANT	9	I/E Range
ACHSELECT	IQUANT	0	Ach Select
ACHRANGE	IQUANT	2	Ach Range
ACHOFFSETENABLE	TOGGLE	F	Ach Offset Enable
ACHOFFSET	QUANT	0	Ach Offset (V)
ACHFILTER	IQUANT	1	Ach Filter
SENSECABLEID	IQUANT	13	Sense Cable ID
PWRCABLEID	IQUANT	13	Power Cable ID
DCCALDATE	LABEL	10/17/2023	DC Calibration Date
ACCALDATE	LABEL	6/2/2023	AC Calibration Date
FRAMEWORKVERSION	LABEL	7.10.3	Framework Version
INSTRUMENTVERSION	LABEL	4.91	Instrument Version
COMMVERSION	LABEL	3.10	Communications Version
CPUPLDVERSION	LABEL	2.22	CPU PLD Version
CTRLPLDVERSION	LABEL	0.00	CTRL PLD Version
PSTATPLDVERSION	LABEL	0.00	PSTAT PLD Version
CURVE1	TABLE
	Pt	T	Vf	Im	Vu	Sig	Ach	IERange	Over	Temp
	#	s	V vs. Ref.	A	V	V	V	#	bits	deg C
	0	0.016667	-2.00081E-001	-3.05521E-007	0.00000E+000	-1.99996E-001	0.00000E+000	9	...........	1488.78
	1	0.033333	-1.99095E-001	1.42169E-006	0.00000E+000	-1.98996E-001	0.00000E+000	9	...........	1488.72
	2	0.05	-1.98093E-001	1.52016E-006	0.00000E+000	-1.97996E-001	0.00000E+000	9	...........	1488.69
	3	0.066667	-1.97093E-001	1.59476E-006	0.00000E+000	-1.96996E-001	0.00000E+000	9	...........	1488.69
	4	0.083333	-1.96093E-001	1.64480E-006	0.00000E+000	-1.95995E-001	0.00000E+000	9	...........	1488.69
	5	0.1	-1.95092E-001	1.67762E-006	0.00000E+000	-1.94995E-001	0.00000E+000	9	...........	1488.69
	6	0.116667	-1.94092E-001	1.71696E-006	0.00000E+000	-1.93995E-001	0.00000E+000	9	...........	1488.69
	7	0.133333	-1.93093E-001	1.73969E-006	0.00000E+000	-1.92995E-001	0.00000E+000	9	...........	1488.69
	8	0.15	-1.92090E-001	1.77272E-006	0.00000E+000	-1.91994E-001	0.00000E+000	9	...........	1488.69
	9	0.166667	-1.91090E-001	1.78816E-006	0.00000E+000	-1.90994E-001	0.00000E+000	9	...........	1488.69
	10	0.183333	-1.90101E-001	1.78137E-006	0.00000E+000	-1.90006E-001	0.00000E+000	9	...........	1488.69
	11	0.2	-1.89101E-001	1.82890E-006	0.00000E+000	-1.89006E-001	0.00000E+000	9	...........	1488.69
	12	0.216667	-1.88102E-001	1.84124E-006	0.00000E+000	-1.88006E-001	0.00000E+000	9	...........	1488.69
	13	0.233333	-1.87101E-001	1.86300E-006	0.00000E+000	-1.87005E-001	0.00000E+000	9	...........	1488.69
	14	0.25	-1.86101E-001	1.87831E-006	0.00000E+000	-1.86005E-001	0.00000E+000	9	...........	1488.69
	15	0.266667	-1.85100E-001	1.88606E-006	0.00000E+000	-1.85005E-001	0.00000E+000	9	...........	1488.69
	16	0.283333	-1.84098E-001	1.90592E-006	0.00000E+000	-1.84005E-001	0.00000E+000	9	...........	1488.69
	17	0.3	-1.83099E-001	1.91424E-006	0.00000E+000	-1.83004E-001	0.00000E+000	9	...........	1488.69
	18	0.316667	-1.82098E-001	1.92430E-006	0.00000E+000	-1.82004E-001	0.00000E+000	9	...........	1488.69
	19	0.333333	-1.81099E-001	1.93784E-006	0.00000E+000	-1.81004E-001	0.00000E+000	9	...........	1488.69
	20	0.35	-1.80099E-001	1.95308E-006	0.00000E+000	-1.80004E-001	0.00000E+000	9	...........	1488.69
	21	0.366667	-1.79096E-001	1.95702E-006	0.00000E+000	-1.79003E-001	0.00000E+000	9	...........	1488.69
	22	0.383333	-1.78096E-001	1.96170E-006	0.00000E+000	-1.78003E-001	0.00000E+000	9	...........	1488.69
	23	0.4	-1.77092E-001	1.97788E-006	0.00000E+000	-1.77003E-001	0.00000E+000	9	...........	1488.69
	24	0.416667	-1.76095E-001	1.97554E-006	0.00000E+000	-1.76002E-001	0.00000E+000	9	...........	1488.69
	25	0.433333	-1.75095E-001	1.99249E-006	0.00000E+000	-1.75002E-001	0.00000E+000	9	...........	1488.69
	26	0.45	-1.74093E-001	1.99433E-006	0.00000E+000	-1.74002E-001	0.00000E+000	9	...........	1488.69
	27	0.466667	-1.73092E-001	2.00846E-006	0.00000E+000	-1.73002E-001	0.00000E+000	9	...........	1488.69
	28	0.483333	-1.72094E-001	2.00492E-006	0.00000E+000	-1.72001E-001	0.00000E+000	9	...........	1488.69
	29	0.5	-1.71092E-001	2.01980E-006	0.00000E+000	-1.71001E-001	0.00000E+000	9	...........	1488.69
	30	0.516667	-1.70092E-001	2.02578E-006	0.00000E+000	-1.70001E-001	0.00000E+000	9	...........	1488.69
	31	0.533333	-1.69089E-001	2.03367E-006	0.00000E+000	-1.69001E-001	0.00000E+000	9	...........	1488.69
	32	0.55	-1.68089E-001	2.03016E-006	0.00000E+000	-1.68000E-001	0.00000E+000	9	...........	1488.69
	33	0.566667	-1.67090E-001	2.03861E-006	0.00000E+000	-1.67000E-001	0.00000E+000	9	...........	1488.69
	34	0.583333	-1.66089E-001	2.03771E-006	0.00000E+000	-1.66000E-001	0.00000E+000	9	...........	1488.69
	35	0.6	-1.65088E-001	2.04761E-006	0.00000E+000	-1.65000E-001	0.00000E+000	9	...........	1488.69
	36	0.616667	-1.64090E-001	2.05018E-006	0.00000E+000	-1.63999E-001	0.00000E+000	9	...........	1488.69
	37	0.633333	-1.63091E-001	2.05302E-006	0.00000E+000	-1.62999E-001	0.00000E+000	9	...........	1488.69
	38	0.65	-1.62089E-001	2.05299E-006	0.00000E+000	-1.61999E-001	0.00000E+000	9	...........	1488.69
	39	0.666667	-1.61089E-001	2.06208E-006	0.00000E+000	-1.60998E-001	0.00000E+000	9	...........	1488.69
	40	0.683333	-1.60090E-001	2.05733E-006	0.00000E+000	-1.59998E-001	0.00000E+000	9	...........	1488.69
	41	0.7	-1.59087E-001	2.06321E-006	0.00000E+000	-1.58998E-001	0.00000E+000	9	...........	1488.69
	42	0.716667	-1.58087E-001	2.05994E-006	0.00000E+000	-1.57998E-001	0.00000E+000	9	...........	1488.69
	43	0.733333	-1.57088E-001	2.06408E-006	0.00000E+000	-1.56997E-001	0.00000E+000	9	...........	1488.69
	44	0.75	-1.56089E-001	2.06549E-006	0.00000E+000	-1.55997E-001	0.00000E+000	9	...........	1488.69
	45	0.766667	-1.55089E-001	2.07328E-006	0.00000E+000	-1.54997E-001	0.00000E+000	9	...........	1488.69
	46	0.783333	-1.54087E-001	2.06866E-006	0.00000E+000	-1.53997E-001	0.00000E+000	9	...........	1488.69
	47	0.8	-1.53088E-001	2.07819E-006	0.00000E+000	-1.52996E-001	0.00000E+000	9	...........	1488.69
	48	0.816667	-1.52087E-001	2.08327E-006	0.00000E+000	-1.51996E-001	0.00000E+000	9	...........	1488.69
	49	0.833333	-1.51089E-001	2.06539E-006	0.00000E+000	-1.50996E-001	0.00000E+000	9	...........	1488.69
	50	0.85	-1.50088E-001	2.08220E-006	0.00000E+000	-1.49996E-001	0.00000E+000	9	...........	1488.69
	51	0.866667	-1.49088E-001	2.08882E-006	0.00000E+000	-1.48995E-001	0.00000E+000	9	...........	1488.69
	52	0.883333	-1.48089E-001	2.09360E-006	0.00000E+000	-1.47995E-001	0.00000E+000	9	...........	1488.69
	53	0.9	-1.47087E-001	2.09457E-006	0.00000E+000	-1.46995E-001	0.00000E+000	9	...........	1488.69
	54	0.916667	-1.46085E-001	2.09443E-006	0.00000E+000	-1.45994E-001	0.00000E+000	9	...........	1488.69
	55	0.933333	-1.45085E-001	2.10088E-006	0.00000E+000	-1.44994E-001	0.00000E+000	9	...........	1488.69
	56	0.95	-1.44084E-001	2.09604E-006	0.00000E+000	-1.43994E-001	0.00000E+000	9	...........	1488.69
	57	0.96667	-1.43098E-001	2.08200E-006	0.00000E+000	-1.43006E-001	0.00000E+000	9	...........	1488.69
	58	0.98333	-1.42098E-001	2.10135E-006	0.00000E+000	-1.42006E-001	0.00000E+000	9	...........	1488.69
	59	1	-1.41096E-001	2.10239E-006	0.00000E+000	-1.41006E-001	0.00000E+000	9	...........	1488.69
	60	1.01667	-1.40097E-001	2.10366E-006	0.00000E+000	-1.40005E-001	0.00000E+000	9	...........	1488.69
	61	1.03333	-1.39096E-001	2.11175E-006	0.00000E+000	-1.39005E-001	0.00000E+000	9	...........	1488.69
	62	1.05	-1.38093E-001	2.10496E-006	0.00000E+000	-1.38005E-001	0.00000E+000	9	...........	1488.69
	63	1.06667	-1.37095E-001	2.10941E-006	0.00000E+000	-1.37005E-001	0.00000E+000	9	...........	1488.69
	64	1.08333	-1.36094E-001	2.11519E-006	0.00000E+000	-1.36004E-001	0.00000E+000	9	...........	1488.69
	65	1.1	-1.35095E-001	2.10907E-006	0.00000E+000	-1.35004E-001	0.00000E+000	9	...........	1488.69
	66	1.11667	-1.34094E-001	2.11626E-006	0.00000E+000	-1.34004E-001	0.00000E+000	9	...........	1488.69
	67	1.13333	-1.33093E-001	2.11596E-006	0.00000E+000	-1.33004E-001	0.00000E+000	9	...........	1488.69
	68	1.15	-1.32090E-001	2.11897E-006	0.00000E+000	-1.32003E-001	0.00000E+000	9	...........	1488.69
	69	1.16667	-1.31090E-001	2.11803E-006	0.00000E+000	-1.31003E-001	0.00000E+000	9	...........	1488.69
	70	1.18333	-1.30091E-001	2.12696E-006	0.00000E+000	-1.30003E-001	0.00000E+000	9	...........	1488.69
	71	1.2	-1.29091E-001	2.11616E-006	0.00000E+000	-1.29002E-001	0.00000E+000	9	...........	1488.69
	72	1.21667	-1.28089E-001	2.12512E-006	0.00000E+000	-1.28002E-001	0.00000E+000	9	...........	1488.69
	73	1.23333	-1.27087E-001	2.11613E-006	0.00000E+000	-1.27002E-001	0.00000E+000	9	...........	1488.69
	74	1.25	-1.26089E-001	2.12635E-006	0.00000E+000	-1.26002E-001	0.00000E+000	9	...........	1488.69
	75	1.26667	-1.25087E-001	2.12652E-006	0.00000E+000	-1.25001E-001	0.00000E+000	9	...........	1488.69
	76	1.28333	-1.24090E-001	2.12081E-006	0.00000E+000	-1.24001E-001	0.00000E+000	9	...........	1488.69
	77	1.3	-1.23087E-001	2.12141E-006	0.00000E+000	-1.23001E-001	0.00000E+000	9	...........	1488.69
	78	1.31667	-1.22088E-001	2.12144E-006	0.00000E+000	-1.22001E-001	0.00000E+000	9	...........	1488.69
	79	1.33333	-1.21087E-001	2.11887E-006	0.00000E+000	-1.21000E-001	0.00000E+000	9	...........	1488.69
	80	1.35	-1.20085E-001	2.12920E-006	0.00000E+000	-1.20000E-001	0.00000E+000	9	...........	1488.69
	81	1.36667	-1.19088E-001	2.12308E-006	0.00000E+000	-1.19000E-001	0.00000E+000	9	...........	1488.69
	82	1.38333	-1.18087E-001	2.13505E-006	0.00000E+000	-1.17999E-001	0.00000E+000	9	...........	1488.69
	83	1.4	-1.17087E-001	2.11860E-006	0.00000E+000	-1.16999E-001	0.00000E+000	9	...........	1488.69
	84	1.41667	-1.16086E-001	2.13284E-006	0.00000E+000	-1.15999E-001	0.00000E+000	9	...........	1488.69
	85	1.43333	-1.15085E-001	2.13240E-006	0.00000E+000	-1.14999E-001	0.00000E+000	9	...........	1488.69
	86	1.45	-1.14084E-001	2.13591E-006	0.00000E+000	-1.13998E-001	0.00000E+000	9	...........	1488.69
	87	1.46667	-1.13082E-001	2.14226E-006	0.00000E+000	-1.12998E-001	0.00000E+000	9	...........	1488.69
	88	1.48333	-1.12085E-001	2.13398E-006	0.00000E+000	-1.11998E-001	0.00000E+000	9	...........	1488.69
	89	1.5	-1.11083E-001	2.13398E-006	0.00000E+000	-1.10998E-001	0.00000E+000	9	...........	1488.69
	90	1.51667	-1.10083E-001	2.14327E-006	0.00000E+000	-1.09997E-001	0.00000E+000	9	...........	1488.69
	91	1.53333	-1.09081E-001	2.14320E-006	0.00000E+000	-1.08997E-001	0.00000E+000	9	...........	1488.69
	92	1.55	-1.08080E-001	2.15249E-006	0.00000E+000	-1.07997E-001	0.00000E+000	9	...........	1488.69
	93	1.56667	-1.07079E-001	2.14648E-006	0.00000E+000	-1.06997E-001	0.00000E+000	9	...........	1488.69
	94	1.58333	-1.06081E-001	2.14688E-006	0.00000E+000	-1.05996E-001	0.00000E+000	9	...........	1488.69
	95	1.6	-1.05082E-001	2.15550E-006	0.00000E+000	-1.04996E-001	0.00000E+000	9	...........	1488.69
	96	1.61667	-1.04083E-001	2.15139E-006	0.00000E+000	-1.03996E-001	0.00000E+000	9	...........	1488.69
	97	1.63333	-1.03081E-001	2.15072E-006	0.00000E+000	-1.02995E-001	0.00000E+000	9	...........	1488.69
	98	1.65	-1.02081E-001	2.16509E-006	0.00000E+000	-1.01995E-001	0.00000E+000	9	...........	1488.69
	99	1.66667	-1.01080E-001	2.15721E-006	0.00000E+000	-1.00995E-001	0.00000E+000	9	...........	1488.69
	100	1.68333	-1.00079E-001	2.15694E-006	0.00000E+000	-9.99947E-002	0.00000E+000	9	...........	1488.69
	101	1.7	-9.90806E-002	2.15520E-006	0.00000E+000	-9.89944E-002	0.00000E+000	9	...........	1488.69
	102	1.71667	-9.80805E-002	2.15961E-006	0.00000E+000	-9.79941E-002	0.00000E+000	9	...........	1488.69
	103	1.73333	-9.70921E-002	2.14551E-006	0.00000E+000	-9.70064E-002	0.00000E+000	9	...........	1488.69
	104	1.75	-9.60902E-002	2.16636E-006	0.00000E+000	-9.60061E-002	0.00000E+000	9	...........	1488.69
	105	1.76667	-9.50884E-002	2.16757E-006	0.00000E+000	-9.50058E-002	0.00000E+000	9	...........	1488.69
	106	1.78333	-9.40895E-002	2.16593E-006	0.00000E+000	-9.40056E-002	0.00000E+000	9	...........	1488.69
	107	1.8	-9.30898E-002	2.16824E-006	0.00000E+000	-9.30053E-002	0.00000E+000	9	...........	1488.69
	108	1.81667	-9.20893E-002	2.16112E-006	0.00000E+000	-9.20050E-002	0.00000E+000	9	...........	1488.69
	109	1.83333	-9.10881E-002	2.16329E-006	0.00000E+000	-9.10048E-002	0.00000E+000	9	...........	1488.69
	110	1.85	-9.00877E-002	2.17796E-006	0.00000E+000	-9.00045E-002	0.00000E+000	9	...........	1488.69
	111	1.86667	-8.90885E-002	2.17178E-006	0.00000E+000	-8.90042E-002	0.00000E+000	9	...........	1488.69
	112	1.88333	-8.80872E-002	2.17800E-006	0.00000E+000	-8.80040E-002	0.00000E+000	9	...........	1488.69
	113	1.9	-8.70868E-002	2.16947E-006	0.00000E+000	-8.70037E-002	0.00000E+000	9	...........	1488.69
	114	1.91667	-8.60855E-002	2.18318E-006	0.00000E+000	-8.60034E-002	0.00000E+000	9	...........	1488.69
	115	1.93333	-8.50862E-002	2.18856E-006	0.00000E+000	-8.50032E-002	0.00000E+000	9	...........	1488.69
	116	1.95	-8.40847E-002	2.18642E-006	0.00000E+000	-8.40029E-002	0.00000E+000	9	...........	1488.69
	117	1.96667	-8.30845E-002	2.19250E-006	0.00000E+000	-8.30026E-002	0.00000E+000	9	...........	1488.69
	118	1.98333	-8.20844E-002	2.19571E-006	0.00000E+000	-8.20024E-002	0.00000E+000	9	...........	1488.69
	119	2	-8.10864E-002	2.19367E-006	0.00000E+000	-8.10021E-002	0.00000E+000	9	...........	1488.69
	120	2.01667	-8.00872E-002	2.18736E-006	0.00000E+000	-8.00018E-002	0.00000E+000	9	...........	1488.69
	121	2.03333	-7.90864E-002	2.19788E-006	0.00000E+000	-7.90016E-002	0.00000E+000	9	...........	1488.69
	122	2.05	-7.80856E-002	2.20029E-006	0.00000E+000	-7.80013E-002	0.00000E+000	9	...........	1488.69
	123	2.06667	-7.70828E-002	2.20310E-006	0.00000E+000	-7.70010E-002	0.00000E+000	9	...........	1488.69
	124	2.08333	-7.60832E-002	2.20320E-006	0.00000E+000	-7.60008E-002	0.00000E+000	9	...........	1488.69
	125	2.1	-7.50829E-002	2.19578E-006	0.00000E+000	-7.50005E-002	0.00000E+000	9	...........	1488.69
	126	2.11667	-7.40840E-002	2.20300E-006	0.00000E+000	-7.40002E-002	0.00000E+000	9	...........	1488.69
	127	2.13333	-7.30815E-002	2.21035E-006	0.00000E+000	-7.30000E-002	0.00000E+000	9	...........	1488.69
	128	2.15	-7.20821E-002	2.20564E-006	0.00000E+000	-7.19997E-002	0.00000E+000	9	...........	1488.69
	129	2.16667	-7.10820E-002	2.20754E-006	0.00000E+000	-7.09994E-002	0.00000E+000	9	...........	1488.69
	130	2.18333	-7.00811E-002	2.20728E-006	0.00000E+000	-6.99992E-002	0.00000E+000	9	...........	1488.69
	131	2.2	-6.90776E-002	2.20784E-006	0.00000E+000	-6.89989E-002	0.00000E+000	9	...........	1488.69
	132	2.21667	-6.80795E-002	2.20447E-006	0.00000E+000	-6.79986E-002	0.00000E+000	9	...........	1488.69
	133	2.23333	-6.70812E-002	2.21042E-006	0.00000E+000	-6.69984E-002	0.00000E+000	9	...........	1488.69
	134	2.25	-6.60784E-002	2.22359E-006	0.00000E+000	-6.59981E-002	0.00000E+000	9	...........	1488.69
	135	2.26667	-6.50784E-002	2.21710E-006	0.00000E+000	-6.49978E-002	0.00000E+000	9	...........	1488.69
	136	2.28333	-6.40759E-002	2.22065E-006	0.00000E+000	-6.39976E-002	0.00000E+000	9	...........	1488.69
	137	2.3	-6.30766E-002	2.22299E-006	0.00000E+000	-6.29973E-002	0.00000E+000	9	...........	1488.69
	138	2.31667	-6.20759E-002	2.22643E-006	0.00000E+000	-6.19970E-002	0.00000E+000	9	...........	1488.69
	139	2.33333	-6.10749E-002	2.22068E-006	0.00000E+000	-6.09967E-002	0.00000E+000	9	...........	1488.69
	140	2.35	-6.00747E-002	2.23285E-006	0.00000E+000	-5.99965E-002	0.00000E+000	9	...........	1488.69
	141	2.36667	-5.90749E-002	2.23158E-006	0.00000E+000	-5.89962E-002	0.00000E+000	9	...........	1488.69
	142	2.38333	-5.80762E-002	2.23900E-006	0.00000E+000	-5.79959E-002	0.00000E+000	9	...........	1488.69
	143	2.4	-5.70756E-002	2.23809E-006	0.00000E+000	-5.69957E-002	0.00000E+000	9	...........	1488.69
	144	2.41667	-5.60729E-002	2.23679E-006	0.00000E+000	-5.59954E-002	0.00000E+000	9	...........	1488.69
	145	2.43333	-5.50725E-002	2.24491E-006	0.00000E+000	-5.49951E-002	0.00000E+000	9	...........	1488.69
	146	2.45	-5.40719E-002	2.23947E-006	0.00000E+000	-5.39949E-002	0.00000E+000	9	...........	1488.69
	147	2.46667	-5.30731E-002	2.24608E-006	0.00000E+000	-5.29946E-002	0.00000E+000	9	...........	1488.69
	148	2.48333	-5.20719E-002	2.24612E-006	0.00000E+000	-5.19943E-002	0.00000E+000	9	...........	1488.69
	149	2.5	-5.10689E-002	2.25775E-006	0.00000E+000	-5.09941E-002	0.00000E+000	9	...........	1488.69
	150	2.51667	-5.00799E-002	2.24144E-006	0.00000E+000	-5.00063E-002	0.00000E+000	9	...........	1488.69
	151	2.53333	-4.90793E-002	2.26828E-006	0.00000E+000	-4.90060E-002	0.00000E+000	9	...........	1488.69
	152	2.55	-4.80827E-002	2.26624E-006	0.00000E+000	-4.80058E-002	0.00000E+000	9	...........	1488.69
	153	2.56667	-4.70827E-002	2.26504E-006	0.00000E+000	-4.70055E-002	0.00000E+000	9	...........	1488.69
	154	2.58333	-4.60816E-002	2.27610E-006	0.00000E+000	-4.60052E-002	0.00000E+000	9	...........	1488.69
	155	2.6	-4.50804E-002	2.27319E-006	0.00000E+000	-4.50050E-002	0.00000E+000	9	...........	1488.69
	156	2.61667	-4.40802E-002	2.29174E-006	0.00000E+000	-4.40047E-002	0.00000E+000	9	...........	1488.69
	157	2.63333	-4.30775E-002	2.28639E-006	0.00000E+000	-4.30044E-002	0.00000E+000	9	...........	1488.69
	158	2.65	-4.20786E-002	2.29595E-006	0.00000E+000	-4.20042E-002	0.00000E+000	9	...........	1488.69
	159	2.66667	-4.10770E-002	2.29208E-006	0.00000E+000	-4.10039E-002	0.00000E+000	9	...........	1488.69
	160	2.68333	-4.00774E-002	2.29699E-006	0.00000E+000	-4.00036E-002	0.00000E+000	9	...........	1488.69
	161	2.7	-3.90779E-002	2.30224E-006	0.00000E+000	-3.90034E-002	0.00000E+000	9	...........	1488.69
	162	2.71667	-3.80750E-002	2.30464E-006	0.00000E+000	-3.80031E-002	0.00000E+000	9	...........	1488.69
	163	2.73333	-3.70742E-002	2.31216E-006	0.00000E+000	-3.70028E-002	0.00000E+000	9	...........	1488.69
	164	2.75	-3.60716E-002	2.31400E-006	0.00000E+000	-3.60026E-002	0.00000E+000	9	...........	1488.69
	165	2.76667	-3.50755E-002	2.31150E-006	0.00000E+000	-3.50023E-002	0.00000E+000	9	...........	1488.69
	166	2.78333	-3.40736E-002	2.31701E-006	0.00000E+000	-3.40020E-002	0.00000E+000	9	...........	1488.69
	167	2.8	-3.30736E-002	2.33078E-006	0.00000E+000	-3.30018E-002	0.00000E+000	9	...........	1488.69
	168	2.81667	-3.20717E-002	2.33092E-006	0.00000E+000	-3.20015E-002	0.00000E+000	9	...........	1488.69
	169	2.83333	-3.10704E-002	2.34007E-006	0.00000E+000	-3.10012E-002	0.00000E+000	9	...........	1488.69
	170	2.85	-3.00702E-002	2.33616E-006	0.00000E+000	-3.00010E-002	0.00000E+000	9	...........	1488.69
	171	2.86667	-2.90715E-002	2.34088E-006	0.00000E+000	-2.90007E-002	0.00000E+000	9	...........	1488.69
	172	2.88333	-2.80677E-002	2.34195E-006	0.00000E+000	-2.80004E-002	0.00000E+000	9	...........	1488.69
	173	2.9	-2.70687E-002	2.34756E-006	0.00000E+000	-2.70002E-002	0.00000E+000	9	...........	1488.69
	174	2.91667	-2.60692E-002	2.34659E-006	0.00000E+000	-2.59999E-002	0.00000E+000	9	...........	1488.69
	175	2.93333	-2.50664E-002	2.35629E-006	0.00000E+000	-2.49996E-002	0.00000E+000	9	...........	1488.69
	176	2.95	-2.40658E-002	2.37206E-006	0.00000E+000	-2.39994E-002	0.00000E+000	9	...........	1488.69
	177	2.96667	-2.30659E-002	2.36120E-006	0.00000E+000	-2.29991E-002	0.00000E+000	9	...........	1488.69
	178	2.98333	-2.20667E-002	2.38059E-006	0.00000E+000	-2.19988E-002	0.00000E+000	9	...........	1488.69
	179	3	-2.10655E-002	2.37464E-006	0.00000E+000	-2.09986E-002	0.00000E+000	9	...........	1488.69
	180	3.01667	-2.00631E-002	2.38045E-006	0.00000E+000	-1.99983E-002	0.00000E+000	9	...........	1488.69
	181	3.03333	-1.90621E-002	2.38373E-006	0.00000E+000	-1.89980E-002	0.00000E+000	9	...........	1488.69
	182	3.05	-1.80594E-002	2.39386E-006	0.00000E+000	-1.79978E-002	0.00000E+000	9	...........	1488.69
	183	3.06667	-1.70604E-002	2.39807E-006	0.00000E+000	-1.69975E-002	0.00000E+000	9	...........	1488.69
	184	3.08333	-1.60612E-002	2.40746E-006	0.00000E+000	-1.59972E-002	0.00000E+000	9	...........	1488.69
	185	3.1	-1.50612E-002	2.40656E-006	0.00000E+000	-1.49970E-002	0.00000E+000	9	...........	1488.69
	186	3.11667	-1.40607E-002	2.41465E-006	0.00000E+000	-1.39967E-002	0.00000E+000	9	...........	1488.69
	187	3.13333	-1.30590E-002	2.41608E-006	0.00000E+000	-1.29964E-002	0.00000E+000	9	...........	1488.69
	188	3.15	-1.20578E-002	2.42705E-006	0.00000E+000	-1.19962E-002	0.00000E+000	9	...........	1488.69
	189	3.16667	-1.10577E-002	2.43901E-006	0.00000E+000	-1.09959E-002	0.00000E+000	9	...........	1488.69
	190	3.18333	-1.00562E-002	2.44018E-006	0.00000E+000	-9.99562E-003	0.00000E+000	9	...........	1488.69
	191	3.2	-9.05740E-003	2.44292E-006	0.00000E+000	-8.99535E-003	0.00000E+000	9	...........	1488.69
	192	3.21667	-8.05633E-003	2.44663E-006	0.00000E+000	-7.99508E-003	0.00000E+000	9	...........	1488.69
	193	3.23333	-7.05572E-003	2.44583E-006	0.00000E+000	-6.99481E-003	0.00000E+000	9	...........	1488.69
	194	3.25	-6.05636E-003	2.46114E-006	0.00000E+000	-5.99455E-003	0.00000E+000	9	...........	1488.69
	195	3.26667	-5.05407E-003	2.46936E-006	0.00000E+000	-4.99428E-003	0.00000E+000	9	...........	1488.69
	196	3.28333	-4.06524E-003	2.46208E-006	0.00000E+000	-4.00651E-003	0.00000E+000	9	...........	1488.69
	197	3.3	-3.06767E-003	2.47210E-006	0.00000E+000	-3.00625E-003	0.00000E+000	9	...........	1488.69
	198	3.31667	-2.06680E-003	2.47474E-006	0.00000E+000	-2.00598E-003	0.00000E+000	9	...........	1488.69
	199	3.33333	-1.06724E-003	2.48210E-006	0.00000E+000	-1.00572E-003	0.00000E+000	9	...........	1488.69
	200	3.35	-6.43813E-005	2.49179E-006	0.00000E+000	-5.44637E-006	0.00000E+000	9	...........	1488.69
	201	3.36667	-1.04067E-003	-1.62294E-007	0.00000E+000	-1.00572E-003	0.00000E+000	9	...........	1488.69
	202	3.38333	-2.04013E-003	-2.77410E-007	0.00000E+000	-2.00598E-003	0.00000E+000	9	...........	1488.69
	203	3.4	-3.04161E-003	-3.47269E-007	0.00000E+000	-3.00625E-003	0.00000E+000	9	...........	1488.69
	204	3.41667	-4.04034E-003	-3.92560E-007	0.00000E+000	-4.00651E-003	0.00000E+000	9	...........	1488.69
	205	3.43333	-5.02721E-003	-4.25350E-007	0.00000E+000	-4.99428E-003	0.00000E+000	9	...........	1488.69
	206	3.45	-6.02984E-003	-4.70741E-007	0.00000E+000	-5.99455E-003	0.00000E+000	9	...........	1488.69
	207	3.46667	-7.02883E-003	-4.90061E-007	0.00000E+000	-6.99481E-003	0.00000E+000	9	...........	1488.69
	208	3.48333	-8.02946E-003	-5.20478E-007	0.00000E+000	-7.99508E-003	0.00000E+000	9	...........	1488.69
	209	3.5	-9.02977E-003	-5.43942E-007	0.00000E+000	-8.99535E-003	0.00000E+000	9	...........	1488.69
	210	3.51667	-1.00288E-002	-5.68543E-007	0.00000E+000	-9.99562E-003	0.00000E+000	9	...........	1488.69
	211	3.53333	-1.10299E-002	-5.78804E-007	0.00000E+000	-1.09959E-002	0.00000E+000	9	...........	1488.69
	212	3.55	-1.20312E-002	-6.11294E-007	0.00000E+000	-1.19962E-002	0.00000E+000	9	...........	1488.69
	213	3.56667	-1.30303E-002	-6.20686E-007	0.00000E+000	-1.29964E-002	0.00000E+000	9	...........	1488.69
	214	3.58333	-1.40336E-002	-6.40908E-007	0.00000E+000	-1.39967E-002	0.00000E+000	9	...........	1488.69
	215	3.6	-1.50354E-002	-6.55014E-007	0.00000E+000	-1.49970E-002	0.00000E+000	9	...........	1488.69
	216	3.61667	-1.60353E-002	-6.70657E-007	0.00000E+000	-1.59972E-002	0.00000E+000	9	...........	1488.69
	217	3.63333	-1.70334E-002	-6.64941E-007	0.00000E+000	-1.69975E-002	0.00000E+000	9	...........	1488.69
	218	3.65	-1.80334E-002	-6.91948E-007	0.00000E+000	-1.79978E-002	0.00000E+000	9	...........	1488.69
	219	3.66667	-1.90367E-002	-6.95124E-007	0.00000E+000	-1.89980E-002	0.00000E+000	9	...........	1488.69
	220	3.68333	-2.00380E-002	-7.14544E-007	0.00000E+000	-1.99983E-002	0.00000E+000	9	...........	1488.69
	221	3.7	-2.10391E-002	-7.12538E-007	0.00000E+000	-2.09986E-002	0.00000E+000	9	...........	1488.69
	222	3.71667	-2.20410E-002	-7.34565E-007	0.00000E+000	-2.19988E-002	0.00000E+000	9	...........	1488.69
	223	3.73333	-2.30392E-002	-7.41451E-007	0.00000E+000	-2.29991E-002	0.00000E+000	9	...........	1488.69
	224	3.75	-2.40385E-002	-7.58163E-007	0.00000E+000	-2.39994E-002	0.00000E+000	9	...........	1488.69
	225	3.76667	-2.50392E-002	-7.62642E-007	0.00000E+000	-2.49996E-002	0.00000E+000	9	...........	1488.69
	226	3.78333	-2.60424E-002	-7.79723E-007	0.00000E+000	-2.59999E-002	0.00000E+000	9	...........	1488.69
	227	3.8	-2.70418E-002	-7.76514E-007	0.00000E+000	-2.70002E-002	0.00000E+000	9	...........	1488.69
	228	3.81667	-2.80407E-002	-7.86575E-007	0.00000E+000	-2.80004E-002	0.00000E+000	9	...........	1488.69
	229	3.83333	-2.90429E-002	-7.98006E-007	0.00000E+000	-2.90007E-002	0.00000E+000	9	...........	1488.69
	230	3.85	-3.00424E-002	-8.13850E-007	0.00000E+000	-3.00010E-002	0.00000E+000	9	...........	1488.69
	231	3.86667	-3.10422E-002	-8.17125E-007	0.00000E+000	-3.10012E-002	0.00000E+000	9	...........	1488.69
	232	3.88333	-3.20444E-002	-8.30662E-007	0.00000E+000	-3.20015E-002	0.00000E+000	9	...........	1488.69
	233	3.9	-3.30450E-002	-8.31498E-007	0.00000E+000	-3.30018E-002	0.00000E+000	9	...........	1488.69
	234	3.91667	-3.40477E-002	-8.47275E-007	0.00000E+000	-3.40020E-002	0.00000E+000	9	...........	1488.69
	235	3.93333	-3.50482E-002	-8.42227E-007	0.00000E+000	-3.50023E-002	0.00000E+000	9	...........	1488.69
	236	3.95	-3.60454E-002	-8.59475E-007	0.00000E+000	-3.60026E-002	0.00000E+000	9	...........	1488.69
	237	3.96667	-3.70467E-002	-8.64489E-007	0.00000E+000	-3.70028E-002	0.00000E+000	9	...........	1488.69
	238	3.98333	-3.80484E-002	-8.70137E-007	0.00000E+000	-3.80031E-002	0.00000E+000	9	...........	1488.69
	239	4	-3.90514E-002	-8.76856E-007	0.00000E+000	-3.90034E-002	0.00000E+000	9	...........	1488.69
	240	4.01667	-4.00516E-002	-8.87752E-007	0.00000E+000	-4.00036E-002	0.00000E+000	9	...........	1488.69
	241	4.03333	-4.10494E-002	-8.94070E-007	0.00000E+000	-4.10039E-002	0.00000E+000	9	...........	1488.78
	242	4.05	-4.20508E-002	-9.00888E-007	0.00000E+000	-4.20042E-002	0.00000E+000	9	...........	1488.78
	243	4.06667	-4.30498E-002	-8.98348E-007	0.00000E+000	-4.30044E-002	0.00000E+000	9	...........	1488.78
	244	4.08333	-4.40532E-002	-9.11317E-007	0.00000E+000	-4.40047E-002	0.00000E+000	9	...........	1488.78
	245	4.1	-4.50547E-002	-9.21278E-007	0.00000E+000	-4.50050E-002	0.00000E+000	9	...........	1488.78
	246	4.11667	-4.60542E-002	-9.33177E-007	0.00000E+000	-4.60052E-002	0.00000E+000	9	...........	1488.78
	247	4.13333	-4.70561E-002	-9.37623E-007	0.00000E+000	-4.70055E-002	0.00000E+000	9	...........	1488.78
	248	4.15	-4.80561E-002	-9.44141E-007	0.00000E+000	-4.80058E-002	0.00000E+000	9	...........	1488.78
	249	4.16667	-4.90534E-002	-9.44809E-007	0.00000E+000	-4.90060E-002	0.00000E+000	9	...........	1488.78
	250	4.18333	-5.00538E-002	-9.55539E-007	0.00000E+000	-5.00063E-002	0.00000E+000	9	...........	1488.78
	251	4.2	-5.10430E-002	-9.39929E-007	0.00000E+000	-5.09941E-002	0.00000E+000	9	...........	1488.78
	252	4.21667	-5.20440E-002	-9.76062E-007	0.00000E+000	-5.19943E-002	0.00000E+000	9	...........	1488.78
	253	4.23333	-5.30451E-002	-9.69544E-007	0.00000E+000	-5.29946E-002	0.00000E+000	9	...........	1488.78
	254	4.25	-5.40448E-002	-9.85120E-007	0.00000E+000	-5.39949E-002	0.00000E+000	9	...........	1488.78
	255	4.26667	-5.50459E-002	-9.81376E-007	0.00000E+000	-5.49951E-002	0.00000E+000	9	...........	1488.78
	256	4.28333	-5.60440E-002	-9.91938E-007	0.00000E+000	-5.59954E-002	0.00000E+000	9	...........	1488.78
	257	4.3	-5.70472E-002	-9.93309E-007	0.00000E+000	-5.69957E-002	0.00000E+000	9	...........	1488.78
	258	4.31667	-5.80485E-002	-1.00942E-006	0.00000E+000	-5.79959E-002	0.00000E+000	9	...........	1488.78
	259	4.33333	-5.90478E-002	-1.00965E-006	0.00000E+000	-5.89962E-002	0.00000E+000	9	...........	1488.78
	260	4.35	-6.00488E-002	-1.02322E-006	0.00000E+000	-5.99965E-002	0.00000E+000	9	...........	1488.78
	261	4.36667	-6.10494E-002	-1.01968E-006	0.00000E+000	-6.09967E-002	0.00000E+000	9	...........	1488.78
	262	4.38333	-6.20495E-002	-1.02978E-006	0.00000E+000	-6.19970E-002	0.00000E+000	9	...........	1488.78
	263	4.4	-6.30512E-002	-1.02707E-006	0.00000E+000	-6.29973E-002	0.00000E+000	9	...........	1488.78
	264	4.41667	-6.40502E-002	-1.04027E-006	0.00000E+000	-6.39976E-002	0.00000E+000	9	...........	1488.78
	265	4.43333	-6.50513E-002	-1.04067E-006	0.00000E+000	-6.49978E-002	0.00000E+000	9	...........	1488.78
	266	4.45	-6.60539E-002	-1.05187E-006	0.00000E+000	-6.59981E-002	0.00000E+000	9	...........	1488.78
	267	4.46667	-6.70542E-002	-1.04859E-006	0.00000E+000	-6.69984E-002	0.00000E+000	9	...........	1488.78
	268	4.48333	-6.80540E-002	-1.06327E-006	0.00000E+000	-6.79986E-002	0.00000E+000	9	...........	1488.78
	269	4.5	-6.90525E-002	-1.05922E-006	0.00000E+000	-6.89989E-002	0.00000E+000	9	...........	1488.78
	270	4.51667	-7.00548E-002	-1.07597E-006	0.00000E+000	-6.99992E-002	0.00000E+000	9	...........	1488.78
	271	4.53333	-7.10565E-002	-1.07924E-006	0.00000E+000	-7.09994E-002	0.00000E+000	9	...........	1488.78
	272	4.55	-7.20566E-002	-1.08700E-006	0.00000E+000	-7.19997E-002	0.00000E+000	9	...........	1488.78
	273	4.56667	-7.30573E-002	-1.08453E-006	0.00000E+000	-7.30000E-002	0.00000E+000	9	...........	1488.78
	274	4.58333	-7.40587E-002	-1.09492E-006	0.00000E+000	-7.40002E-002	0.00000E+000	9	...........	1488.78
	275	4.6	-7.50586E-002	-1.09622E-006	0.00000E+000	-7.50005E-002	0.00000E+000	9	...........	1488.78
	276	4.61667	-7.60588E-002	-1.10699E-006	0.00000E+000	-7.60008E-002	0.00000E+000	9	...........	1488.78
	277	4.63333	-7.70571E-002	-1.10645E-006	0.00000E+000	-7.70010E-002	0.00000E+000	9	...........	1488.78
	278	4.65	-7.80583E-002	-1.10769E-006	0.00000E+000	-7.80013E-002	0.00000E+000	9	...........	1488.78
	279	4.66667	-7.90602E-002	-1.11508E-006	0.00000E+000	-7.90016E-002	0.00000E+000	9	...........	1488.78
	280	4.68333	-8.00604E-002	-1.13420E-006	0.00000E+000	-8.00018E-002	0.00000E+000	9	...........	1488.78
	281	4.7	-8.10590E-002	-1.12504E-006	0.00000E+000	-8.10021E-002	0.00000E+000	9	...........	1488.78
	282	4.71667	-8.20581E-002	-1.13978E-006	0.00000E+000	-8.20024E-002	0.00000E+000	9	...........	1488.78
	283	4.73333	-8.30571E-002	-1.14305E-006	0.00000E+000	-8.30026E-002	0.00000E+000	9	...........	1488.78
	284	4.75	-8.40582E-002	-1.14396E-006	0.00000E+000	-8.40029E-002	0.00000E+000	9	...........	1488.78
	285	4.76667	-8.50607E-002	-1.15004E-006	0.00000E+000	-8.50032E-002	0.00000E+000	9	...........	1488.78
	286	4.78333	-8.60589E-002	-1.16127E-006	0.00000E+000	-8.60034E-002	0.00000E+000	9	...........	1488.78
	287	4.8	-8.70610E-002	-1.16595E-006	0.00000E+000	-8.70037E-002	0.00000E+000	9	...........	1488.78
	288	4.81667	-8.80612E-002	-1.16822E-006	0.00000E+000	-8.80040E-002	0.00000E+000	9	...........	1488.78
	289	4.83333	-8.90620E-002	-1.17558E-006	0.00000E+000	-8.90042E-002	0.00000E+000	9	...........	1488.78
	290	4.85	-9.00612E-002	-1.17792E-006	0.00000E+000	-9.00045E-002	0.00000E+000	9	...........	1488.78
	291	4.86667	-9.10625E-002	-1.19058E-006	0.00000E+000	-9.10048E-002	0.00000E+000	9	...........	1488.78
	292	4.88333	-9.20642E-002	-1.19797E-006	0.00000E+000	-9.20050E-002	0.00000E+000	9	...........	1488.78
	293	4.9	-9.30619E-002	-1.19560E-006	0.00000E+000	-9.30053E-002	0.00000E+000	9	...........	1488.78
	294	4.91667	-9.40622E-002	-1.20068E-006	0.00000E+000	-9.40056E-002	0.00000E+000	9	...........	1488.78
	295	4.93333	-9.50632E-002	-1.21301E-006	0.00000E+000	-9.50058E-002	0.00000E+000	9	...........	1488.78
	296	4.95	-9.60650E-002	-1.21301E-006	0.00000E+000	-9.60061E-002	0.00000E+000	9	...........	1488.78
	297	4.96667	-9.70662E-002	-1.21759E-006	0.00000E+000	-9.70064E-002	0.00000E+000	9	...........	1488.78
	298	4.98333	-9.80553E-002	-1.20756E-006	0.00000E+000	-9.79941E-002	0.00000E+000	9	...........	1488.78
	299	5	-9.90554E-002	-1.22083E-006	0.00000E+000	-9.89944E-002	0.00000E+000	9	...........	1488.78
	300	5.01667	-1.00054E-001	-1.22538E-006	0.00000E+000	-9.99947E-002	0.00000E+000	9	...........	1488.78
	301	5.03333	-1.01053E-001	-1.23190E-006	0.00000E+000	-1.00995E-001	0.00000E+000	9	...........	1488.69
	302	5.05	-1.02055E-001	-1.24704E-006	0.00000E+000	-1.01995E-001	0.00000E+000	9	...........	1488.69
	303	5.06667	-1.03056E-001	-1.24898E-006	0.00000E+000	-1.02995E-001	0.00000E+000	9	...........	1488.69
	304	5.08333	-1.04056E-001	-1.25981E-006	0.00000E+000	-1.03996E-001	0.00000E+000	9	...........	1488.69
	305	5.1	-1.05054E-001	-1.26188E-006	0.00000E+000	-1.04996E-001	0.00000E+000	9	...........	1488.69
	306	5.11667	-1.06056E-001	-1.26930E-006	0.00000E+000	-1.05996E-001	0.00000E+000	9	...........	1488.69
	307	5.13333	-1.07054E-001	-1.27151E-006	0.00000E+000	-1.06997E-001	0.00000E+000	9	...........	1488.69
	308	5.15	-1.08053E-001	-1.27832E-006	0.00000E+000	-1.07997E-001	0.00000E+000	9	...........	1488.69
	309	5.16667	-1.09055E-001	-1.27886E-006	0.00000E+000	-1.08997E-001	0.00000E+000	9	...........	1488.69
	310	5.18333	-1.10057E-001	-1.28832E-006	0.00000E+000	-1.09997E-001	0.00000E+000	9	...........	1488.69
	311	5.2	-1.11057E-001	-1.29985E-006	0.00000E+000	-1.10998E-001	0.00000E+000	9	...........	1488.69
	312	5.21667	-1.12058E-001	-1.30222E-006	0.00000E+000	-1.11998E-001	0.00000E+000	9	...........	1488.69
	313	5.23333	-1.13056E-001	-1.30493E-006	0.00000E+000	-1.12998E-001	0.00000E+000	9	...........	1488.69
	314	5.25	-1.14057E-001	-1.31884E-006	0.00000E+000	-1.13998E-001	0.00000E+000	9	...........	1488.69
	315	5.26667	-1.15059E-001	-1.31991E-006	0.00000E+000	-1.14999E-001	0.00000E+000	9	...........	1488.69
	316	5.28333	-1.16061E-001	-1.32836E-006	0.00000E+000	-1.15999E-001	0.00000E+000	9	...........	1488.69
	317	5.3	-1.17061E-001	-1.34126E-006	0.00000E+000	-1.16999E-001	0.00000E+000	9	...........	1488.69
	318	5.31667	-1.18060E-001	-1.33722E-006	0.00000E+000	-1.17999E-001	0.00000E+000	9	...........	1488.69
	319	5.33333	-1.19061E-001	-1.35042E-006	0.00000E+000	-1.19000E-001	0.00000E+000	9	...........	1488.69
	320	5.35	-1.20059E-001	-1.34915E-006	0.00000E+000	-1.20000E-001	0.00000E+000	9	...........	1488.69
	321	5.36667	-1.21062E-001	-1.35584E-006	0.00000E+000	-1.21000E-001	0.00000E+000	9	...........	1488.69
	322	5.38333	-1.22063E-001	-1.36583E-006	0.00000E+000	-1.22001E-001	0.00000E+000	9	...........	1488.69
	323	5.4	-1.23062E-001	-1.36476E-006	0.00000E+000	-1.23001E-001	0.00000E+000	9	...........	1488.69
	324	5.41667	-1.24063E-001	-1.38107E-006	0.00000E+000	-1.24001E-001	0.00000E+000	9	...........	1488.69
	325	5.43333	-1.25062E-001	-1.37339E-006	0.00000E+000	-1.25001E-001	0.00000E+000	9	...........	1488.69
	326	5.45	-1.26063E-001	-1.38171E-006	0.00000E+000	-1.26002E-001	0.00000E+000	9	...........	1488.69
	327	5.46667	-1.27063E-001	-1.38371E-006	0.00000E+000	-1.27002E-001	0.00000E+000	9	...........	1488.69
	328	5.48333	-1.28064E-001	-1.39976E-006	0.00000E+000	-1.28002E-001	0.00000E+000	9	...........	1488.69
	329	5.5	-1.29067E-001	-1.40601E-006	0.00000E+000	-1.29002E-001	0.00000E+000	9	...........	1488.69
	330	5.51667	-1.30065E-001	-1.40684E-006	0.00000E+000	-1.30003E-001	0.00000E+000	9	...........	1488.69
	331	5.53333	-1.31064E-001	-1.41563E-006	0.00000E+000	-1.31003E-001	0.00000E+000	9	...........	1488.69
	332	5.55	-1.32063E-001	-1.42158E-006	0.00000E+000	-1.32003E-001	0.00000E+000	9	...........	1488.69
	333	5.56667	-1.33065E-001	-1.42961E-006	0.00000E+000	-1.33004E-001	0.00000E+000	9	...........	1488.69
	334	5.58333	-1.34066E-001	-1.43007E-006	0.00000E+000	-1.34004E-001	0.00000E+000	9	...........	1488.69
	335	5.6	-1.35068E-001	-1.44281E-006	0.00000E+000	-1.35004E-001	0.00000E+000	9	...........	1488.69
	336	5.61667	-1.36066E-001	-1.45327E-006	0.00000E+000	-1.36004E-001	0.00000E+000	9	...........	1488.69
	337	5.63333	-1.37068E-001	-1.45437E-006	0.00000E+000	-1.37005E-001	0.00000E+000	9	...........	1488.69
	338	5.65	-1.38069E-001	-1.46918E-006	0.00000E+000	-1.38005E-001	0.00000E+000	9	...........	1488.69
	339	5.66667	-1.39069E-001	-1.47266E-006	0.00000E+000	-1.39005E-001	0.00000E+000	9	...........	1488.69
	340	5.68333	-1.40068E-001	-1.47567E-006	0.00000E+000	-1.40005E-001	0.00000E+000	9	...........	1488.69
	341	5.7	-1.41068E-001	-1.49064E-006	0.00000E+000	-1.41006E-001	0.00000E+000	9	...........	1488.69
	342	5.71667	-1.42070E-001	-1.49733E-006	0.00000E+000	-1.42006E-001	0.00000E+000	9	...........	1488.69
	343	5.73333	-1.43071E-001	-1.50237E-006	0.00000E+000	-1.43006E-001	0.00000E+000	9	...........	1488.69
	344	5.75	-1.44057E-001	-1.48910E-006	0.00000E+000	-1.43994E-001	0.00000E+000	9	...........	1488.69
	345	5.76667	-1.45057E-001	-1.50739E-006	0.00000E+000	-1.44994E-001	0.00000E+000	9	...........	1488.69
	346	5.78333	-1.46058E-001	-1.53219E-006	0.00000E+000	-1.45994E-001	0.00000E+000	9	...........	1488.69
	347	5.8	-1.47061E-001	-1.53426E-006	0.00000E+000	-1.46995E-001	0.00000E+000	9	...........	1488.69
	348	5.81667	-1.48061E-001	-1.54723E-006	0.00000E+000	-1.47995E-001	0.00000E+000	9	...........	1488.69
	349	5.83333	-1.49061E-001	-1.54967E-006	0.00000E+000	-1.48995E-001	0.00000E+000	9	...........	1488.69
	350	5.85	-1.50062E-001	-1.55749E-006	0.00000E+000	-1.49996E-001	0.00000E+000	9	...........	1488.69
	351	5.86667	-1.51061E-001	-1.57133E-006	0.00000E+000	-1.50996E-001	0.00000E+000	9	...........	1488.69
	352	5.88333	-1.52060E-001	-1.56718E-006	0.00000E+000	-1.51996E-001	0.00000E+000	9	...........	1488.69
	353	5.9	-1.53060E-001	-1.57895E-006	0.00000E+000	-1.52996E-001	0.00000E+000	9	...........	1488.69
	354	5.91667	-1.54061E-001	-1.59399E-006	0.00000E+000	-1.53997E-001	0.00000E+000	9	...........	1488.69
	355	5.93333	-1.55063E-001	-1.60121E-006	0.00000E+000	-1.54997E-001	0.00000E+000	9	...........	1488.69
	356	5.95	-1.56062E-001	-1.60449E-006	0.00000E+000	-1.55997E-001	0.00000E+000	9	...........	1488.69
	357	5.96667	-1.57062E-001	-1.62083E-006	0.00000E+000	-1.56997E-001	0.00000E+000	9	...........	1488.69
	358	5.98333	-1.58063E-001	-1.62287E-006	0.00000E+000	-1.57998E-001	0.00000E+000	9	...........	1488.69
	359	6	-1.59060E-001	-1.64276E-006	0.00000E+000	-1.58998E-001	0.00000E+000	9	...........	1488.69
	360	6.01667	-1.60064E-001	-1.64262E-006	0.00000E+000	-1.59998E-001	0.00000E+000	9	...........	1488.71
	361	6.03333	-1.61065E-001	-1.65904E-006	0.00000E+000	-1.60998E-001	0.00000E+000	9	...........	1488.97
	362	6.05	-1.62064E-001	-1.66823E-006	0.00000E+000	-1.61999E-001	0.00000E+000	9	...........	1488.97
	363	6.06667	-1.63067E-001	-1.67361E-006	0.00000E+000	-1.62999E-001	0.00000E+000	9	...........	1488.97
	364	6.08333	-1.64066E-001	-1.68340E-006	0.00000E+000	-1.63999E-001	0.00000E+000	9	...........	1488.97
	365	6.1	-1.65065E-001	-1.69032E-006	0.00000E+000	-1.65000E-001	0.00000E+000	9	...........	1488.97
	366	6.11667	-1.66064E-001	-1.70389E-006	0.00000E+000	-1.66000E-001	0.00000E+000	9	...........	1488.97
	367	6.13333	-1.67065E-001	-1.71566E-006	0.00000E+000	-1.67000E-001	0.00000E+000	9	...........	1488.97
	368	6.15	-1.68066E-001	-1.73384E-006	0.00000E+000	-1.68000E-001	0.00000E+000	9	...........	1488.97
	369	6.16667	-1.69066E-001	-1.73377E-006	0.00000E+000	-1.69001E-001	0.00000E+000	9	...........	1488.97
	370	6.18333	-1.70066E-001	-1.74537E-006	0.00000E+000	-1.70001E-001	0.00000E+000	9	...........	1488.97
	371	6.2	-1.71066E-001	-1.75711E-006	0.00000E+000	-1.71001E-001	0.00000E+000	9	...........	1488.97
[...]
	1009	16.8333	-9.03118E-003	-5.48321E-007	0.00000E+000	-8.99535E-003	0.00000E+000	9	...........	1488.69
	1010	16.85	-1.00305E-002	-5.68710E-007	0.00000E+000	-9.99562E-003	0.00000E+000	9	...........	1488.69
	1011	16.8667	-1.10320E-002	-5.79540E-007	0.00000E+000	-1.09959E-002	0.00000E+000	9	...........	1488.69
	1012	16.8833	-1.20337E-002	-6.01266E-007	0.00000E+000	-1.19962E-002	0.00000E+000	9	...........	1488.69
	1013	16.9	-1.30329E-002	-6.20318E-007	0.00000E+000	-1.29964E-002	0.00000E+000	9	...........	1488.69
	1014	16.9167	-1.40343E-002	-6.42379E-007	0.00000E+000	-1.39967E-002	0.00000E+000	9	...........	1488.69
	1015	16.9333	-1.50362E-002	-6.54679E-007	0.00000E+000	-1.49970E-002	0.00000E+000	9	...........	1488.69
	1016	16.95	-1.60370E-002	-6.58490E-007	0.00000E+000	-1.59972E-002	0.00000E+000	9	...........	1488.69
	1017	16.9667	-1.70343E-002	-6.85230E-007	0.00000E+000	-1.69975E-002	0.00000E+000	9	...........	1488.69
	1018	16.9833	-1.80325E-002	-6.85965E-007	0.00000E+000	-1.79978E-002	0.00000E+000	9	...........	1488.69
	1019	17	-1.90359E-002	-7.02878E-007	0.00000E+000	-1.89980E-002	0.00000E+000	9	...........	1488.69
	1020	17.0167	-2.00375E-002	-7.21496E-007	0.00000E+000	-1.99983E-002	0.00000E+000	9	...........	1488.69
	1021	17.0333	-2.10401E-002	-7.29184E-007	0.00000E+000	-2.09986E-002	0.00000E+000	9	...........	1488.69
	1022	17.05	-2.20417E-002	-7.35635E-007	0.00000E+000	-2.19988E-002	0.00000E+000	9	...........	1488.69
	1023	17.0667	-2.30399E-002	-7.42788E-007	0.00000E+000	-2.29991E-002	0.00000E+000	9	...........	1488.69
	1024	17.0833	-2.40380E-002	-7.52347E-007	0.00000E+000	-2.39994E-002	0.00000E+000	9	...........	1488.69
	1025	17.1	-2.50401E-002	-7.68124E-007	0.00000E+000	-2.49996E-002	0.00000E+000	9	...........	1488.69
	1026	17.1167	-2.60435E-002	-7.81895E-007	0.00000E+000	-2.59999E-002	0.00000E+000	9	...........	1488.69
	1027	17.1333	-2.70415E-002	-7.86775E-007	0.00000E+000	-2.70002E-002	0.00000E+000	9	...........	1488.69
	1028	17.15	-2.80423E-002	-7.96067E-007	0.00000E+000	-2.80004E-002	0.00000E+000	9	...........	1488.69
	1029	17.1667	-2.90443E-002	-7.99844E-007	0.00000E+000	-2.90007E-002	0.00000E+000	9	...........	1488.69
	1030	17.1833	-3.00440E-002	-8.17760E-007	0.00000E+000	-3.00010E-002	0.00000E+000	9	...........	1488.69
	1031	17.2	-3.10429E-002	-8.23743E-007	0.00000E+000	-3.10012E-002	0.00000E+000	9	...........	1488.69
	1032	17.2167	-3.20444E-002	-8.30763E-007	0.00000E+000	-3.20015E-002	0.00000E+000	9	...........	1488.69
	1033	17.2333	-3.30454E-002	-8.42996E-007	0.00000E+000	-3.30018E-002	0.00000E+000	9	...........	1488.69
	1034	17.25	-3.40472E-002	-8.49848E-007	0.00000E+000	-3.40020E-002	0.00000E+000	9	...........	1488.69
	1035	17.2667	-3.50469E-002	-8.55731E-007	0.00000E+000	-3.50023E-002	0.00000E+000	9	...........	1488.69
	1036	17.2833	-3.60445E-002	-8.56266E-007	0.00000E+000	-3.60026E-002	0.00000E+000	9	...........	1488.69
	1037	17.3	-3.70470E-002	-8.68366E-007	0.00000E+000	-3.70028E-002	0.00000E+000	9	...........	1488.69
	1038	17.3167	-3.80492E-002	-8.83340E-007	0.00000E+000	-3.80031E-002	0.00000E+000	9	...........	1488.69
	1039	17.3333	-3.90516E-002	-8.89290E-007	0.00000E+000	-3.90034E-002	0.00000E+000	9	...........	1488.69
	1040	17.35	-4.00522E-002	-8.88956E-007	0.00000E+000	-4.00036E-002	0.00000E+000	9	...........	1488.69
	1041	17.3667	-4.10498E-002	-8.93903E-007	0.00000E+000	-4.10039E-002	0.00000E+000	9	...........	1488.69
	1042	17.3833	-4.20508E-002	-8.97446E-007	0.00000E+000	-4.20042E-002	0.00000E+000	9	...........	1488.69
	1043	17.4	-4.30523E-002	-9.12921E-007	0.00000E+000	-4.30044E-002	0.00000E+000	9	...........	1488.69
	1044	17.4167	-4.40558E-002	-9.15328E-007	0.00000E+000	-4.40047E-002	0.00000E+000	9	...........	1488.69
	1045	17.4333	-4.50557E-002	-9.22849E-007	0.00000E+000	-4.50050E-002	0.00000E+000	9	...........	1488.69
	1046	17.45	-4.60559E-002	-9.26191E-007	0.00000E+000	-4.60052E-002	0.00000E+000	9	...........	1488.69
	1047	17.4667	-4.70587E-002	-9.37489E-007	0.00000E+000	-4.70055E-002	0.00000E+000	9	...........	1488.69
	1048	17.4833	-4.80574E-002	-9.41467E-007	0.00000E+000	-4.80058E-002	0.00000E+000	9	...........	1488.69
	1049	17.5	-4.90560E-002	-9.45879E-007	0.00000E+000	-4.90060E-002	0.00000E+000	9	...........	1488.69
	1050	17.5167	-5.00565E-002	-9.57511E-007	0.00000E+000	-5.00063E-002	0.00000E+000	9	...........	1488.69
	1051	17.5333	-5.10458E-002	-9.41299E-007	0.00000E+000	-5.09941E-002	0.00000E+000	9	...........	1488.69
	1052	17.55	-5.20471E-002	-9.65131E-007	0.00000E+000	-5.19943E-002	0.00000E+000	9	...........	1488.69
	1053	17.5667	-5.30484E-002	-9.65833E-007	0.00000E+000	-5.29946E-002	0.00000E+000	9	...........	1488.69
	1054	17.5833	-5.40487E-002	-9.75727E-007	0.00000E+000	-5.39949E-002	0.00000E+000	9	...........	1488.69
	1055	17.6	-5.50488E-002	-9.81543E-007	0.00000E+000	-5.49951E-002	0.00000E+000	9	...........	1488.69
	1056	17.6167	-5.60470E-002	-9.86457E-007	0.00000E+000	-5.59954E-002	0.00000E+000	9	...........	1488.69
	1057	17.6333	-5.70510E-002	-9.99927E-007	0.00000E+000	-5.69957E-002	0.00000E+000	9	...........	1488.69
	1058	17.65	-5.80511E-002	-9.90535E-007	0.00000E+000	-5.79959E-002	0.00000E+000	9	...........	1488.69
	1059	17.6667	-5.90493E-002	-1.00701E-006	0.00000E+000	-5.89962E-002	0.00000E+000	9	...........	1488.69
	1060	17.6833	-6.00511E-002	-1.00477E-006	0.00000E+000	-5.99965E-002	0.00000E+000	9	...........	1488.69
	1061	17.7	-6.10511E-002	-1.01363E-006	0.00000E+000	-6.09967E-002	0.00000E+000	9	...........	1488.69
	1062	17.7167	-6.20521E-002	-1.01945E-006	0.00000E+000	-6.19970E-002	0.00000E+000	9	...........	1488.69
	1063	17.7333	-6.30525E-002	-1.03449E-006	0.00000E+000	-6.29973E-002	0.00000E+000	9	...........	1488.69
	1064	17.75	-6.40524E-002	-1.03556E-006	0.00000E+000	-6.39976E-002	0.00000E+000	9	...........	1488.69
	1065	17.7667	-6.50546E-002	-1.04375E-006	0.00000E+000	-6.49978E-002	0.00000E+000	9	...........	1488.69
	1066	17.7833	-6.60551E-002	-1.05317E-006	0.00000E+000	-6.59981E-002	0.00000E+000	9	...........	1488.69
	1067	17.8	-6.70558E-002	-1.05505E-006	0.00000E+000	-6.69984E-002	0.00000E+000	9	...........	1488.69
	1068	17.8167	-6.80542E-002	-1.06130E-006	0.00000E+000	-6.79986E-002	0.00000E+000	9	...........	1488.69
	1069	17.8333	-6.90538E-002	-1.06541E-006	0.00000E+000	-6.89989E-002	0.00000E+000	9	...........	1488.69
	1070	17.85	-7.00552E-002	-1.06728E-006	0.00000E+000	-6.99992E-002	0.00000E+000	9	...........	1488.69
	1071	17.8667	-7.10570E-002	-1.07567E-006	0.00000E+000	-7.09994E-002	0.00000E+000	9	...........	1488.69
	1072	17.8833	-7.20567E-002	-1.08282E-006	0.00000E+000	-7.19997E-002	0.00000E+000	9	...........	1488.69
	1073	17.9	-7.30560E-002	-1.08844E-006	0.00000E+000	-7.30000E-002	0.00000E+000	9	...........	1488.69
	1074	17.9167	-7.40569E-002	-1.08827E-006	0.00000E+000	-7.40002E-002	0.00000E+000	9	...........	1488.69
	1075	17.9333	-7.50564E-002	-1.10899E-006	0.00000E+000	-7.50005E-002	0.00000E+000	9	...........	1488.69
	1076	17.95	-7.60582E-002	-1.10515E-006	0.00000E+000	-7.60008E-002	0.00000E+000	9	...........	1488.69
	1077	17.9667	-7.70585E-002	-1.11765E-006	0.00000E+000	-7.70010E-002	0.00000E+000	9	...........	1488.69
	1078	17.9833	-7.80610E-002	-1.11698E-006	0.00000E+000	-7.80013E-002	0.00000E+000	9	...........	1488.69
	1079	18	-7.90610E-002	-1.13052E-006	0.00000E+000	-7.90016E-002	0.00000E+000	9	...........	1488.69
	1080	18.0167	-8.00624E-002	-1.12684E-006	0.00000E+000	-8.00018E-002	0.00000E+000	9	...........	1488.69
	1081	18.0333	-8.10603E-002	-1.12815E-006	0.00000E+000	-8.10021E-002	0.00000E+000	9	...........	1488.69
	1082	18.05	-8.20595E-002	-1.14158E-006	0.00000E+000	-8.20024E-002	0.00000E+000	9	...........	1488.69
	1083	18.0667	-8.30593E-002	-1.14185E-006	0.00000E+000	-8.30026E-002	0.00000E+000	9	...........	1488.69
	1084	18.0833	-8.40612E-002	-1.14686E-006	0.00000E+000	-8.40029E-002	0.00000E+000	9	...........	1488.69
	1085	18.1	-8.50620E-002	-1.15763E-006	0.00000E+000	-8.50032E-002	0.00000E+000	9	...........	1488.69
	1086	18.1167	-8.60623E-002	-1.16010E-006	0.00000E+000	-8.60034E-002	0.00000E+000	9	...........	1488.69
	1087	18.1333	-8.70610E-002	-1.15736E-006	0.00000E+000	-8.70037E-002	0.00000E+000	9	...........	1488.69
	1088	18.15	-8.80612E-002	-1.16358E-006	0.00000E+000	-8.80040E-002	0.00000E+000	9	...........	1488.69
	1089	18.1667	-8.90613E-002	-1.16876E-006	0.00000E+000	-8.90042E-002	0.00000E+000	9	...........	1488.69
	1090	18.1833	-9.00610E-002	-1.17497E-006	0.00000E+000	-9.00045E-002	0.00000E+000	9	...........	1488.69
	1091	18.2	-9.10599E-002	-1.18851E-006	0.00000E+000	-9.10048E-002	0.00000E+000	9	...........	1488.69
	1092	18.2167	-9.20618E-002	-1.18998E-006	0.00000E+000	-9.20050E-002	0.00000E+000	9	...........	1488.69
	1093	18.2333	-9.30633E-002	-1.19667E-006	0.00000E+000	-9.30053E-002	0.00000E+000	9	...........	1488.69
	1094	18.25	-9.40617E-002	-1.20178E-006	0.00000E+000	-9.40056E-002	0.00000E+000	9	...........	1488.69
	1095	18.2667	-9.50615E-002	-1.20830E-006	0.00000E+000	-9.50058E-002	0.00000E+000	9	...........	1488.69
	1096	18.2833	-9.60649E-002	-1.21552E-006	0.00000E+000	-9.60061E-002	0.00000E+000	9	...........	1488.69
	1097	18.3	-9.70662E-002	-1.21549E-006	0.00000E+000	-9.70064E-002	0.00000E+000	9	...........	1488.69
	1098	18.3167	-9.80560E-002	-1.20195E-006	0.00000E+000	-9.79941E-002	0.00000E+000	9	...........	1488.69
	1099	18.3333	-9.90564E-002	-1.21682E-006	0.00000E+000	-9.89944E-002	0.00000E+000	9	...........	1488.69
	1100	18.35	-1.00056E-001	-1.22307E-006	0.00000E+000	-9.99947E-002	0.00000E+000	9	...........	1488.69
	1101	18.3667	-1.01054E-001	-1.23437E-006	0.00000E+000	-1.00995E-001	0.00000E+000	9	...........	1488.69
	1102	18.3833	-1.02054E-001	-1.24844E-006	0.00000E+000	-1.01995E-001	0.00000E+000	9	...........	1488.69
	1103	18.4	-1.03056E-001	-1.25917E-006	0.00000E+000	-1.02995E-001	0.00000E+000	9	...........	1488.69
	1104	18.4167	-1.04059E-001	-1.25045E-006	0.00000E+000	-1.03996E-001	0.00000E+000	9	...........	1488.69
	1105	18.4333	-1.05056E-001	-1.26907E-006	0.00000E+000	-1.04996E-001	0.00000E+000	9	...........	1488.69
	1106	18.45	-1.06058E-001	-1.25991E-006	0.00000E+000	-1.05996E-001	0.00000E+000	9	...........	1488.69
	1107	18.4667	-1.07056E-001	-1.26880E-006	0.00000E+000	-1.06997E-001	0.00000E+000	9	...........	1488.69
	1108	18.4833	-1.08055E-001	-1.27274E-006	0.00000E+000	-1.07997E-001	0.00000E+000	9	...........	1488.69
	1109	18.5	-1.09057E-001	-1.28909E-006	0.00000E+000	-1.08997E-001	0.00000E+000	9	...........	1488.69
	1110	18.5167	-1.10056E-001	-1.29146E-006	0.00000E+000	-1.09997E-001	0.00000E+000	9	...........	1488.69
	1111	18.5333	-1.11057E-001	-1.29631E-006	0.00000E+000	-1.10998E-001	0.00000E+000	9	...........	1488.69
	1112	18.55	-1.12058E-001	-1.29434E-006	0.00000E+000	-1.11998E-001	0.00000E+000	9	...........	1488.69
	1113	18.5667	-1.13055E-001	-1.30506E-006	0.00000E+000	-1.12998E-001	0.00000E+000	9	...........	1488.69
	1114	18.5833	-1.14056E-001	-1.31696E-006	0.00000E+000	-1.13998E-001	0.00000E+000	9	...........	1488.69
	1115	18.6	-1.15059E-001	-1.31630E-006	0.00000E+000	-1.14999E-001	0.00000E+000	9	...........	1488.69
	1116	18.6167	-1.16060E-001	-1.32168E-006	0.00000E+000	-1.15999E-001	0.00000E+000	9	...........	1488.69
	1117	18.6333	-1.17060E-001	-1.33311E-006	0.00000E+000	-1.16999E-001	0.00000E+000	9	...........	1488.69
	1118	18.65	-1.18059E-001	-1.33438E-006	0.00000E+000	-1.17999E-001	0.00000E+000	9	...........	1488.69
	1119	18.6667	-1.19062E-001	-1.34417E-006	0.00000E+000	-1.19000E-001	0.00000E+000	9	...........	1488.69
	1120	18.6833	-1.20061E-001	-1.34424E-006	0.00000E+000	-1.20000E-001	0.00000E+000	9	...........	1488.69
	1121	18.7	-1.21062E-001	-1.36824E-006	0.00000E+000	-1.21000E-001	0.00000E+000	9	...........	1488.69
	1122	18.7167	-1.22063E-001	-1.37298E-006	0.00000E+000	-1.22001E-001	0.00000E+000	9	...........	1488.69
	1123	18.7333	-1.23063E-001	-1.37222E-006	0.00000E+000	-1.23001E-001	0.00000E+000	9	...........	1488.69
	1124	18.75	-1.24064E-001	-1.37586E-006	0.00000E+000	-1.24001E-001	0.00000E+000	9	...........	1488.69
	1125	18.7667	-1.25063E-001	-1.38839E-006	0.00000E+000	-1.25001E-001	0.00000E+000	9	...........	1488.69
	1126	18.7833	-1.26063E-001	-1.38555E-006	0.00000E+000	-1.26002E-001	0.00000E+000	9	...........	1488.69
	1127	18.8	-1.27063E-001	-1.40056E-006	0.00000E+000	-1.27002E-001	0.00000E+000	9	...........	1488.69
	1128	18.8167	-1.28064E-001	-1.40073E-006	0.00000E+000	-1.28002E-001	0.00000E+000	9	...........	1488.69
	1129	18.8333	-1.29068E-001	-1.41289E-006	0.00000E+000	-1.29002E-001	0.00000E+000	9	...........	1488.69
	1130	18.85	-1.30067E-001	-1.41199E-006	0.00000E+000	-1.30003E-001	0.00000E+000	9	...........	1488.69
	1131	18.8667	-1.31069E-001	-1.42222E-006	0.00000E+000	-1.31003E-001	0.00000E+000	9	...........	1488.69
	1132	18.8833	-1.32066E-001	-1.42730E-006	0.00000E+000	-1.32003E-001	0.00000E+000	9	...........	1488.69
	1133	18.9	-1.33066E-001	-1.43987E-006	0.00000E+000	-1.33004E-001	0.00000E+000	9	...........	1488.69
	1134	18.9167	-1.34067E-001	-1.44538E-006	0.00000E+000	-1.34004E-001	0.00000E+000	9	...........	1488.69
	1135	18.9333	-1.35068E-001	-1.45514E-006	0.00000E+000	-1.35004E-001	0.00000E+000	9	...........	1488.69
	1136	18.95	-1.36066E-001	-1.45504E-006	0.00000E+000	-1.36004E-001	0.00000E+000	9	...........	1488.69
	1137	18.9667	-1.37068E-001	-1.46393E-006	0.00000E+000	-1.37005E-001	0.00000E+000	9	...........	1488.69
	1138	18.9833	-1.38069E-001	-1.47022E-006	0.00000E+000	-1.38005E-001	0.00000E+000	9	...........	1488.69
	1139	19	-1.39070E-001	-1.47647E-006	0.00000E+000	-1.39005E-001	0.00000E+000	9	...........	1488.69
	1140	19.0167	-1.40069E-001	-1.48987E-006	0.00000E+000	-1.40005E-001	0.00000E+000	9	...........	1488.69
	1141	19.0333	-1.41069E-001	-1.49194E-006	0.00000E+000	-1.41006E-001	0.00000E+000	9	...........	1488.69
	1142	19.05	-1.42073E-001	-1.49081E-006	0.00000E+000	-1.42006E-001	0.00000E+000	9	...........	1488.69
	1143	19.0667	-1.43072E-001	-1.50354E-006	0.00000E+000	-1.43006E-001	0.00000E+000	9	...........	1488.69
	1144	19.0833	-1.44058E-001	-1.49221E-006	0.00000E+000	-1.43994E-001	0.00000E+000	9	...........	1488.69
	1145	19.1	-1.45059E-001	-1.51745E-006	0.00000E+000	-1.44994E-001	0.00000E+000	9	...........	1488.69
	1146	19.1167	-1.46059E-001	-1.52119E-006	0.00000E+000	-1.45994E-001	0.00000E+000	9	...........	1488.69
	1147	19.1333	-1.47060E-001	-1.53262E-006	0.00000E+000	-1.46995E-001	0.00000E+000	9	...........	1488.69
	1148	19.15	-1.48061E-001	-1.53456E-006	0.00000E+000	-1.47995E-001	0.00000E+000	9	...........	1488.69
	1149	19.1667	-1.49059E-001	-1.54041E-006	0.00000E+000	-1.48995E-001	0.00000E+000	9	...........	1488.69
	1150	19.1833	-1.50061E-001	-1.55311E-006	0.00000E+000	-1.49996E-001	0.00000E+000	9	...........	1488.69
	1151	19.2	-1.51060E-001	-1.56648E-006	0.00000E+000	-1.50996E-001	0.00000E+000	9	...........	1488.69
	1152	19.2167	-1.52058E-001	-1.56264E-006	0.00000E+000	-1.51996E-001	0.00000E+000	9	...........	1488.69
	1153	19.2333	-1.53061E-001	-1.58236E-006	0.00000E+000	-1.52996E-001	0.00000E+000	9	...........	1488.69
	1154	19.25	-1.54060E-001	-1.58500E-006	0.00000E+000	-1.53997E-001	0.00000E+000	9	...........	1488.69
	1155	19.2667	-1.55064E-001	-1.59687E-006	0.00000E+000	-1.54997E-001	0.00000E+000	9	...........	1488.69
	1156	19.2833	-1.56062E-001	-1.60977E-006	0.00000E+000	-1.55997E-001	0.00000E+000	9	...........	1488.69
	1157	19.3	-1.57064E-001	-1.61328E-006	0.00000E+000	-1.56997E-001	0.00000E+000	9	...........	1488.69
	1158	19.3167	-1.58061E-001	-1.62735E-006	0.00000E+000	-1.57998E-001	0.00000E+000	9	...........	1488.69
	1159	19.3333	-1.59061E-001	-1.62849E-006	0.00000E+000	-1.58998E-001	0.00000E+000	9	...........	1488.69
	1160	19.35	-1.60064E-001	-1.63557E-006	0.00000E+000	-1.59998E-001	0.00000E+000	9	...........	1488.69
	1161	19.3667	-1.61065E-001	-1.65870E-006	0.00000E+000	-1.60998E-001	0.00000E+000	9	...........	1488.69
	1162	19.3833	-1.62064E-001	-1.66138E-006	0.00000E+000	-1.61999E-001	0.00000E+000	9	...........	1488.69
	1163	19.4	-1.63067E-001	-1.67959E-006	0.00000E+000	-1.62999E-001	0.00000E+000	9	...........	1488.69
	1164	19.4167	-1.64065E-001	-1.67775E-006	0.00000E+000	-1.63999E-001	0.00000E+000	9	...........	1488.69
	1165	19.4333	-1.65065E-001	-1.69183E-006	0.00000E+000	-1.65000E-001	0.00000E+000	9	...........	1488.69
	1166	19.45	-1.66064E-001	-1.70058E-006	0.00000E+000	-1.66000E-001	0.00000E+000	9	...........	1488.69
	1167	19.4667	-1.67066E-001	-1.70964E-006	0.00000E+000	-1.67000E-001	0.00000E+000	9	...........	1488.69
	1168	19.4833	-1.68065E-001	-1.72181E-006	0.00000E+000	-1.68000E-001	0.00000E+000	9	...........	1488.69
	1169	19.5	-1.69065E-001	-1.73247E-006	0.00000E+000	-1.69001E-001	0.00000E+000	9	...........	1488.69
	1170	19.5167	-1.70068E-001	-1.74079E-006	0.00000E+000	-1.70001E-001	0.00000E+000	9	...........	1488.69
	1171	19.5333	-1.71067E-001	-1.75223E-006	0.00000E+000	-1.71001E-001	0.00000E+000	9	...........	1488.69
	1172	19.55	-1.72067E-001	-1.75667E-006	0.00000E+000	-1.72001E-001	0.00000E+000	9	...........	1488.69
	1173	19.5667	-1.73068E-001	-1.78034E-006	0.00000E+000	-1.73002E-001	0.00000E+000	9	...........	1488.69
	1174	19.5833	-1.74068E-001	-1.79203E-006	0.00000E+000	-1.74002E-001	0.00000E+000	9	...........	1488.69
	1175	19.6	-1.75069E-001	-1.79829E-006	0.00000E+000	-1.75002E-001	0.00000E+000	9	...........	1488.69
	1176	19.6167	-1.76070E-001	-1.81069E-006	0.00000E+000	-1.76002E-001	0.00000E+000	9	...........	1488.69
	1177	19.6333	-1.77067E-001	-1.82048E-006	0.00000E+000	-1.77003E-001	0.00000E+000	9	...........	1488.69
	1178	19.65	-1.78069E-001	-1.83759E-006	0.00000E+000	-1.78003E-001	0.00000E+000	9	...........	1488.69
	1179	19.6667	-1.79071E-001	-1.84592E-006	0.00000E+000	-1.79003E-001	0.00000E+000	9	...........	1488.69
	1180	19.6833	-1.80070E-001	-1.86323E-006	0.00000E+000	-1.80004E-001	0.00000E+000	9	...........	1488.69
	1181	19.7	-1.81073E-001	-1.88105E-006	0.00000E+000	-1.81004E-001	0.00000E+000	9	...........	1488.69
	1182	19.7167	-1.82071E-001	-1.88643E-006	0.00000E+000	-1.82004E-001	0.00000E+000	9	...........	1488.69
	1183	19.7333	-1.83071E-001	-1.90411E-006	0.00000E+000	-1.83004E-001	0.00000E+000	9	...........	1488.69
	1184	19.75	-1.84070E-001	-1.91283E-006	0.00000E+000	-1.84005E-001	0.00000E+000	9	...........	1488.69
	1185	19.7667	-1.85071E-001	-1.93961E-006	0.00000E+000	-1.85005E-001	0.00000E+000	9	...........	1488.69
	1186	19.7833	-1.86071E-001	-1.94643E-006	0.00000E+000	-1.86005E-001	0.00000E+000	9	...........	1488.69
	1187	19.8	-1.87074E-001	-1.96133E-006	0.00000E+000	-1.87005E-001	0.00000E+000	9	...........	1488.69
	1188	19.8167	-1.88076E-001	-1.98406E-006	0.00000E+000	-1.88006E-001	0.00000E+000	9	...........	1488.69
	1189	19.8333	-1.89076E-001	-2.00840E-006	0.00000E+000	-1.89006E-001	0.00000E+000	9	...........	1488.69
	1190	19.85	-1.90074E-001	-2.01080E-006	0.00000E+000	-1.90006E-001	0.00000E+000	9	...........	1488.69
	1191	19.8667	-1.91062E-001	-2.01856E-006	0.00000E+000	-1.90994E-001	0.00000E+000	9	...........	1488.69
	1192	19.8833	-1.92063E-001	-2.04667E-006	0.00000E+000	-1.91994E-001	0.00000E+000	9	...........	1488.69
	1193	19.9	-1.93065E-001	-2.07020E-006	0.00000E+000	-1.92995E-001	0.00000E+000	9	...........	1488.69
	1194	19.9167	-1.94065E-001	-2.08781E-006	0.00000E+000	-1.93995E-001	0.00000E+000	9	...........	1488.69
	1195	19.9333	-1.95064E-001	-2.10352E-006	0.00000E+000	-1.94995E-001	0.00000E+000	9	...........	1488.69
	1196	19.95	-1.96065E-001	-2.12124E-006	0.00000E+000	-1.95995E-001	0.00000E+000	9	...........	1488.69
	1197	19.9667	-1.97064E-001	-2.14022E-006	0.00000E+000	-1.96996E-001	0.00000E+000	9	...........	1488.69
	1198	19.9833	-1.98066E-001	-2.16843E-006	0.00000E+000	-1.97996E-001	0.00000E+000	9	...........	1488.69
	1199	20	-1.99068E-001	-2.18966E-006	0.00000E+000	-1.98996E-001	0.00000E+000	9	...........	1488.69
	1200	20.0167	-2.00067E-001	-2.21185E-006	0.00000E+000	-1.99996E-001	0.00000E+000	9	...........	1488.69
CURVE4	TABLE
	Pt	T	Vf	Im	Vu	Sig	Ach	IERange	Over	Temp
	#	s	V vs. Ref.	A	V	V	V	#	bits	deg C
	1201	20.0333	-2.00079E-001	-5.33246E-007	0.00000E+000	-1.99996E-001	0.00000E+000	9	...........	1488.69