File: input/CV_ECSA_#1_#4.DTA
EXPLAIN
TAG	CV
TITLE	LABEL	ECSA	Test Identifier
DATE	LABEL	20.8.2024	Date
TIME	LABEL	8:37:52	Time
NOTES	NOTES	1	Notes...

PSTAT	PSTAT	IFC1010-36105	Potentiostat
VINIT	POTEN	-2.00000E-001	F	A Potential (V)
VLIMIT1	POTEN	0.00000E+000	F	A Potential (V)
VLIMIT2	POTEN	-2.00000E-001	F	A Potential (V)
VFINAL	POTEN	-2.00000E-001	F	A Potential (V)
SCANRATE	QUANT	3.99999E+001	A Real Number
STEPSIZE	QUANT	1.00000E+000	Step Size (mV)
CYCLES	IQUANT	3	Cycles (#)
IMODE	SELECTOR	1	I/E Range Mode
IRANGE	QUANT	3.00000E-001	Max Current (mA)
AREA	QUANT	1.00000E+000	Sample Area (cm^2)
EQDELAY	QUANT	0.00000E+000	Equil. Time (s)
IRCOMP	SELECTOR	0	IRComp
PFCOR	QUANT	5.00000E+001	PF Corr. (ohm)
SAMPLINGMODE	SELECTOR	2	Sampling Mode
EOC	QUANT	-0.1790659	Open Circuit (V)
ELECTRODETYPE	SELECTOR	0	Electrode Type
STRIPPING	TOGGLE	F	Used for Stripping
SEQUENCER	TOGGLE	TRUE	Run as Sequence
PSTATMODEL	IQUANT	64	Pstat Model
PSTATSECTION	LABEL	IFC1010-36105	Pstat Section
PSTATSERIALNO	LABEL	36105	Pstat Serial Number
CTRLMODE	IQUANT	1	Control Mode
ELECTROMETER	IQUANT	0	RE=0 or CS=1
IESTAB	IQUANT	2	I/E Stability
CASPEED	IQUANT	4	Control Amp Speed
CONVENTION	IQUANT	1	Current Convention
ICHRANGE	IQUANT	2	Ich Range
ICHRANGEMODE	TOGGLE	F	Ich Auto Range
ICHOFFSETENABLE	TOGGLE	F	Ich Offset Enable
ICHOFFSET	QUANT	0	Ich Offset (V)
ICHFILTER	IQUANT	3	Ich Filter
VCHRANGE	IQUANT	1	Vch Range
VCHRANGEMODE	TOGGLE	F	Vch Auto Range
VCHOFFSETENABLE	TOGGLE	F	Vch Offset Enable
VCHOFFSET	QUANT	0	Vch Offset (V)
VCHFILTER	IQUANT	3	Vch Filter
IERANGELOWERLIMIT	IQUANT	4	I/E Range Lower Limit
IERANGEMODE	TOGGLE	F	I/E AutoRange
IERANGE	IQUANT	9	I/E Range
ACHSELECT	IQUANT	0	Ach Select
ACHRANGE	IQUANT	2	Ach Range
ACHOFFSETENABLE	TOGGLE	F	Ach Offset Enable
ACHOFFSET	QUANT	0	Ach Offset (V)
ACHFILTER	IQUANT	1	Ach Filter
SENSECABLEID	IQUANT	13	Sense Cable ID
PWRCABLEID	IQUANT	13	Power Cable ID
DCCALDATE	LABEL	10/17/2023	DC Calibration Date
ACCALDATE	LABEL	6/2/2023	AC Calibration Date
FRAMEWORKVERSION	LABEL	7.10.3	Framework Version
INSTRUMENTVERSION	LABEL	4.91	Instrument Version
COMMVERSION	LABEL	3.10	Communications Version
CPUPLDVERSION	LABEL	2.22	CPU PLD Version
CTRLPLDVERSION	LABEL	0.00	CTRL PLD Version
PSTATPLDVERSION	LABEL	0.00	PSTAT PLD Version
CURVE1	TABLE
	Pt	T	Vf	Im	Vu	Sig	Ach	IERange	Over	Temp
	#	s	V vs. Ref.	A	V	V	V	#	bits	deg C
	0	0.025	-2.00081E-001	-2.25718E-007	0.00000E+000	-1.99996E-001	0.00000E+000	9	...........	1488.78
	1	0.05	-1.99090E-001	9.70925E-007	0.00000E+000	-1.98996E-001	0.00000E+000	9	...........	1488.78
	2	0.075	-1.98088E-001	1.05020E-006	0.00000E+000	-1.97996E-001	0.00000E+000	9	...........	1488.78
	3	0.1	-1.97088E-001	1.08935E-006	0.00000E+000	-1.96996E-001	0.00000E+000	9	...........	1488.78
	4	0.125	-1.96090E-001	1.11912E-006	0.00000E+000	-1.95995E-001	0.00000E+000	9	...........	1488.78
	5	0.15	-1.95088E-001	1.15402E-006	0.00000E+000	-1.94995E-001	0.00000E+000	9	...........	1488.78
	6	0.175	-1.94086E-001	1.18484E-006	0.00000E+000	-1.93995E-001	0.00000E+000	9	...........	1488.78
	7	0.2	-1.93088E-001	1.20526E-006	0.00000E+000	-1.92995E-001	0.00000E+000	9	...........	1488.78
	8	0.225	-1.92085E-001	1.22982E-006	0.00000E+000	-1.91994E-001	0.00000E+000	9	...........	1488.78
	9	0.25	-1.91083E-001	1.25313E-006	0.00000E+000	-1.90994E-001	0.00000E+000	9	...........	1488.78
	10	0.275	-1.90095E-001	1.26376E-006	0.00000E+000	-1.90006E-001	0.00000E+000	9	...........	1488.78
	11	0.3	-1.89095E-001	1.29092E-006	0.00000E+000	-1.89006E-001	0.00000E+000	9	...........	1488.77
	12	0.325	-1.88095E-001	1.29636E-006	0.00000E+000	-1.88006E-001	0.00000E+000	9	...........	1488.69
	13	0.35	-1.87095E-001	1.32007E-006	0.00000E+000	-1.87005E-001	0.00000E+000	9	...........	1488.69
	14	0.375	-1.86095E-001	1.32974E-006	0.00000E+000	-1.86005E-001	0.00000E+000	9	...........	1488.69
	15	0.4	-1.85097E-001	1.34141E-006	0.00000E+000	-1.85005E-001	0.00000E+000	9	...........	1488.69
	16	0.425	-1.84094E-001	1.35410E-006	0.00000E+000	-1.84005E-001	0.00000E+000	9	...........	1488.69
	17	0.45	-1.83093E-001	1.36512E-006	0.00000E+000	-1.83004E-001	0.00000E+000	9	...........	1488.69
	18	0.475	-1.82092E-001	1.37824E-006	0.00000E+000	-1.82004E-001	0.00000E+000	9	...........	1488.69
	19	0.5	-1.81095E-001	1.38245E-006	0.00000E+000	-1.81004E-001	0.00000E+000	9	...........	1488.69
	20	0.525	-1.80092E-001	1.39637E-006	0.00000E+000	-1.80004E-001	0.00000E+000	9	...........	1488.69
	21	0.55	-1.79091E-001	1.40982E-006	0.00000E+000	-1.79003E-001	0.00000E+000	9	...........	1488.69
	22	0.575	-1.78089E-001	1.42253E-006	0.00000E+000	-1.78003E-001	0.00000E+000	9	...........	1488.69
	23	0.6	-1.77088E-001	1.42402E-006	0.00000E+000	-1.77003E-001	0.00000E+000	9	...........	1488.69
	24	0.625	-1.76090E-001	1.42355E-006	0.00000E+000	-1.76002E-001	0.00000E+000	9	...........	1488.69
	25	0.65	-1.75090E-001	1.44585E-006	0.00000E+000	-1.75002E-001	0.00000E+000	9	...........	1488.69
	26	0.675	-1.74089E-001	1.45074E-006	0.00000E+000	-1.74002E-001	0.00000E+000	9	...........	1488.69
	27	0.7	-1.73088E-001	1.45235E-006	0.00000E+000	-1.73002E-001	0.00000E+000	9	...........	1488.69
	28	0.725	-1.72089E-001	1.45451E-006	0.00000E+000	-1.72001E-001	0.00000E+000	9	...........	1488.69
	29	0.75	-1.71088E-001	1.46453E-006	0.00000E+000	-1.71001E-001	0.00000E+000	9	...........	1488.69
	30	0.775	-1.70089E-001	1.46936E-006	0.00000E+000	-1.70001E-001	0.00000E+000	9	...........	1488.69
	31	0.8	-1.69088E-001	1.47145E-006	0.00000E+000	-1.69001E-001	0.00000E+000	9	...........	1488.69
	32	0.825	-1.68086E-001	1.46466E-006	0.00000E+000	-1.68000E-001	0.00000E+000	9	...........	1488.69
	33	0.85	-1.67086E-001	1.48112E-006	0.00000E+000	-1.67000E-001	0.00000E+000	9	...........	1488.69
	34	0.875	-1.66084E-001	1.48484E-006	0.00000E+000	-1.66000E-001	0.00000E+000	9	...........	1488.69
	35	0.9	-1.65083E-001	1.48261E-006	0.00000E+000	-1.65000E-001	0.00000E+000	9	...........	1488.69
	36	0.925	-1.64084E-001	1.49110E-006	0.00000E+000	-1.63999E-001	0.00000E+000	9	...........	1488.69
	37	0.95	-1.63086E-001	1.50125E-006	0.00000E+000	-1.62999E-001	0.00000E+000	9	...........	1488.69
	38	0.975	-1.62084E-001	1.50201E-006	0.00000E+000	-1.61999E-001	0.00000E+000	9	...........	1488.69
	39	1	-1.61082E-001	1.50740E-006	0.00000E+000	-1.60998E-001	0.00000E+000	9	...........	1488.69
	40	1.025	-1.60082E-001	1.51791E-006	0.00000E+000	-1.59998E-001	0.00000E+000	9	...........	1488.69
	41	1.05	-1.59080E-001	1.52439E-006	0.00000E+000	-1.58998E-001	0.00000E+000	9	...........	1488.69
	42	1.075	-1.58082E-001	1.52403E-006	0.00000E+000	-1.57998E-001	0.00000E+000	9	...........	1488.69
	43	1.1	-1.57084E-001	1.52441E-006	0.00000E+000	-1.56997E-001	0.00000E+000	9	...........	1488.69
	44	1.125	-1.56083E-001	1.52499E-006	0.00000E+000	-1.55997E-001	0.00000E+000	9	...........	1488.69
	45	1.15	-1.55082E-001	1.52866E-006	0.00000E+000	-1.54997E-001	0.00000E+000	9	...........	1488.69
	46	1.175	-1.54080E-001	1.53886E-006	0.00000E+000	-1.53997E-001	0.00000E+000	9	...........	1488.69
	47	1.2	-1.53081E-001	1.53485E-006	0.00000E+000	-1.52996E-001	0.00000E+000	9	...........	1488.69
	48	1.225	-1.52079E-001	1.53679E-006	0.00000E+000	-1.51996E-001	0.00000E+000	9	...........	1488.69
	49	1.25	-1.51082E-001	1.53483E-006	0.00000E+000	-1.50996E-001	0.00000E+000	9	...........	1488.69
	50	1.275	-1.50082E-001	1.54445E-006	0.00000E+000	-1.49996E-001	0.00000E+000	9	...........	1488.69
	51	1.3	-1.49082E-001	1.54173E-006	0.00000E+000	-1.48995E-001	0.00000E+000	9	...........	1488.71
	52	1.325	-1.48081E-001	1.54249E-006	0.00000E+000	-1.47995E-001	0.00000E+000	9	...........	1488.78
	53	1.35	-1.47082E-001	1.55187E-006	0.00000E+000	-1.46995E-001	0.00000E+000	9	...........	1488.78
	54	1.375	-1.46078E-001	1.55953E-006	0.00000E+000	-1.45994E-001	0.00000E+000	9	...........	1488.78
	55	1.4	-1.45077E-001	1.55209E-006	0.00000E+000	-1.44994E-001	0.00000E+000	9	...........	1488.78
	56	1.425	-1.44077E-001	1.55155E-006	0.00000E+000	-1.43994E-001	0.00000E+000	9	...........	1488.78
	57	1.45	-1.43090E-001	1.54690E-006	0.00000E+000	-1.43006E-001	0.00000E+000	9	...........	1488.78
	58	1.475	-1.42091E-001	1.56178E-006	0.00000E+000	-1.42006E-001	0.00000E+000	9	...........	1488.78
	59	1.5	-1.41089E-001	1.57010E-006	0.00000E+000	-1.41006E-001	0.00000E+000	9	...........	1488.78
	60	1.525	-1.40089E-001	1.56855E-006	0.00000E+000	-1.40005E-001	0.00000E+000	9	...........	1488.78
	61	1.55	-1.39089E-001	1.56846E-006	0.00000E+000	-1.39005E-001	0.00000E+000	9	...........	1488.78
	62	1.575	-1.38090E-001	1.57071E-006	0.00000E+000	-1.38005E-001	0.00000E+000	9	...........	1488.78
	63	1.6	-1.37088E-001	1.57217E-006	0.00000E+000	-1.37005E-001	0.00000E+000	9	...........	1488.78
	64	1.625	-1.36088E-001	1.57387E-006	0.00000E+000	-1.36004E-001	0.00000E+000	9	...........	1488.78
	65	1.65	-1.35089E-001	1.57997E-006	0.00000E+000	-1.35004E-001	0.00000E+000	9	...........	1488.78
	66	1.675	-1.34088E-001	1.57823E-006	0.00000E+000	-1.34004E-001	0.00000E+000	9	...........	1488.78
	67	1.7	-1.33085E-001	1.58075E-006	0.00000E+000	-1.33004E-001	0.00000E+000	9	...........	1488.78
	68	1.725	-1.32085E-001	1.58197E-006	0.00000E+000	-1.32003E-001	0.00000E+000	9	...........	1488.78
	69	1.75	-1.31086E-001	1.58148E-006	0.00000E+000	-1.31003E-001	0.00000E+000	9	...........	1488.78
	70	1.775	-1.30085E-001	1.58754E-006	0.00000E+000	-1.30003E-001	0.00000E+000	9	...........	1488.78
	71	1.8	-1.29085E-001	1.58852E-006	0.00000E+000	-1.29002E-001	0.00000E+000	9	...........	1488.78
	72	1.825	-1.28083E-001	1.58291E-006	0.00000E+000	-1.28002E-001	0.00000E+000	9	...........	1488.78
	73	1.85	-1.27082E-001	1.59099E-006	0.00000E+000	-1.27002E-001	0.00000E+000	9	...........	1488.78
	74	1.875	-1.26082E-001	1.58979E-006	0.00000E+000	-1.26002E-001	0.00000E+000	9	...........	1488.78
	75	1.9	-1.25083E-001	1.59616E-006	0.00000E+000	-1.25001E-001	0.00000E+000	9	...........	1488.78
	76	1.925	-1.24083E-001	1.59504E-006	0.00000E+000	-1.24001E-001	0.00000E+000	9	...........	1488.78
	77	1.95	-1.23083E-001	1.60173E-006	0.00000E+000	-1.23001E-001	0.00000E+000	9	...........	1488.78
	78	1.975	-1.22083E-001	1.60362E-006	0.00000E+000	-1.22001E-001	0.00000E+000	9	...........	1488.78
	79	2	-1.21083E-001	1.60188E-006	0.00000E+000	-1.21000E-001	0.00000E+000	9	...........	1488.78
	80	2.025	-1.20081E-001	1.60271E-006	0.00000E+000	-1.20000E-001	0.00000E+000	9	...........	1488.78
	81	2.05	-1.19082E-001	1.60141E-006	0.00000E+000	-1.19000E-001	0.00000E+000	9	...........	1488.78
	82	2.075	-1.18081E-001	1.60823E-006	0.00000E+000	-1.17999E-001	0.00000E+000	9	...........	1488.78
	83	2.1	-1.17082E-001	1.60752E-006	0.00000E+000	-1.16999E-001	0.00000E+000	9	...........	1488.78
	84	2.125	-1.16082E-001	1.60749E-006	0.00000E+000	-1.15999E-001	0.00000E+000	9	...........	1488.78
	85	2.15	-1.15079E-001	1.61475E-006	0.00000E+000	-1.14999E-001	0.00000E+000	9	...........	1488.78
	86	2.175	-1.14077E-001	1.61564E-006	0.00000E+000	-1.13998E-001	0.00000E+000	9	...........	1488.78
	87	2.2	-1.13075E-001	1.61990E-006	0.00000E+000	-1.12998E-001	0.00000E+000	9	...........	1488.78
	88	2.225	-1.12079E-001	1.61905E-006	0.00000E+000	-1.11998E-001	0.00000E+000	9	...........	1488.78
	89	2.25	-1.11077E-001	1.62544E-006	0.00000E+000	-1.10998E-001	0.00000E+000	9	...........	1488.78
	90	2.275	-1.10077E-001	1.62203E-006	0.00000E+000	-1.09997E-001	0.00000E+000	9	...........	1488.78
	91	2.3	-1.09076E-001	1.62896E-006	0.00000E+000	-1.08997E-001	0.00000E+000	9	...........	1488.77
	92	2.325	-1.08076E-001	1.63515E-006	0.00000E+000	-1.07997E-001	0.00000E+000	9	...........	1488.69
	93	2.35	-1.07074E-001	1.63484E-006	0.00000E+000	-1.06997E-001	0.00000E+000	9	...........	1488.69
	94	2.375	-1.06077E-001	1.63430E-006	0.00000E+000	-1.05996E-001	0.00000E+000	9	...........	1488.69
	95	2.4	-1.05077E-001	1.63909E-006	0.00000E+000	-1.04996E-001	0.00000E+000	9	...........	1488.69
	96	2.425	-1.04079E-001	1.63673E-006	0.00000E+000	-1.03996E-001	0.00000E+000	9	...........	1488.69
	97	2.45	-1.03076E-001	1.64112E-006	0.00000E+000	-1.02995E-001	0.00000E+000	9	...........	1488.69
	98	2.475	-1.02076E-001	1.64286E-006	0.00000E+000	-1.01995E-001	0.00000E+000	9	...........	1488.69
	99	2.5	-1.01075E-001	1.64793E-006	0.00000E+000	-1.00995E-001	0.00000E+000	9	...........	1488.69
	100	2.525	-1.00075E-001	1.63689E-006	0.00000E+000	-9.99947E-002	0.00000E+000	9	...........	1488.69
	101	2.55	-9.90770E-002	1.63900E-006	0.00000E+000	-9.89944E-002	0.00000E+000	9	...........	1488.69
	102	2.575	-9.80765E-002	1.64170E-006	0.00000E+000	-9.79941E-002	0.00000E+000	9	...........	1488.69
	103	2.6	-9.70878E-002	1.63067E-006	0.00000E+000	-9.70064E-002	0.00000E+000	9	...........	1488.69
	104	2.625	-9.60848E-002	1.64733E-006	0.00000E+000	-9.60061E-002	0.00000E+000	9	...........	1488.69
	105	2.65	-9.50831E-002	1.64818E-006	0.00000E+000	-9.50058E-002	0.00000E+000	9	...........	1488.69
	106	2.675	-9.40841E-002	1.65170E-006	0.00000E+000	-9.40056E-002	0.00000E+000	9	...........	1488.69
	107	2.7	-9.30852E-002	1.65194E-006	0.00000E+000	-9.30053E-002	0.00000E+000	9	...........	1488.69
	108	2.725	-9.20848E-002	1.65446E-006	0.00000E+000	-9.20050E-002	0.00000E+000	9	...........	1488.69
	109	2.75	-9.10838E-002	1.65965E-006	0.00000E+000	-9.10048E-002	0.00000E+000	9	...........	1488.69
	110	2.775	-9.00843E-002	1.65566E-006	0.00000E+000	-9.00045E-002	0.00000E+000	9	...........	1488.69
	111	2.8	-8.90836E-002	1.65492E-006	0.00000E+000	-8.90042E-002	0.00000E+000	9	...........	1488.69
	112	2.825	-8.80819E-002	1.65971E-006	0.00000E+000	-8.80040E-002	0.00000E+000	9	...........	1488.69
	113	2.85	-8.70818E-002	1.66535E-006	0.00000E+000	-8.70037E-002	0.00000E+000	9	...........	1488.69
	114	2.875	-8.60797E-002	1.66653E-006	0.00000E+000	-8.60034E-002	0.00000E+000	9	...........	1488.69
	115	2.9	-8.50817E-002	1.67145E-006	0.00000E+000	-8.50032E-002	0.00000E+000	9	...........	1488.69
	116	2.925	-8.40794E-002	1.67004E-006	0.00000E+000	-8.40029E-002	0.00000E+000	9	...........	1488.69
	117	2.95	-8.30779E-002	1.67212E-006	0.00000E+000	-8.30026E-002	0.00000E+000	9	...........	1488.69
	118	2.975	-8.20780E-002	1.67274E-006	0.00000E+000	-8.20024E-002	0.00000E+000	9	...........	1488.69
	119	3	-8.10793E-002	1.66953E-006	0.00000E+000	-8.10021E-002	0.00000E+000	9	...........	1488.69
	120	3.025	-8.00800E-002	1.66822E-006	0.00000E+000	-8.00018E-002	0.00000E+000	9	...........	1488.69
	121	3.05	-7.90809E-002	1.67356E-006	0.00000E+000	-7.90016E-002	0.00000E+000	9	...........	1488.69
	122	3.075	-7.80800E-002	1.67234E-006	0.00000E+000	-7.80013E-002	0.00000E+000	9	...........	1488.69
	123	3.1	-7.70780E-002	1.68274E-006	0.00000E+000	-7.70010E-002	0.00000E+000	9	...........	1488.69
	124	3.125	-7.60783E-002	1.68606E-006	0.00000E+000	-7.60008E-002	0.00000E+000	9	...........	1488.69
	125	3.15	-7.50772E-002	1.69260E-006	0.00000E+000	-7.50005E-002	0.00000E+000	9	...........	1488.69
	126	3.175	-7.40776E-002	1.68922E-006	0.00000E+000	-7.40002E-002	0.00000E+000	9	...........	1488.69
	127	3.2	-7.30753E-002	1.69621E-006	0.00000E+000	-7.30000E-002	0.00000E+000	9	...........	1488.69
	128	3.225	-7.20750E-002	1.69532E-006	0.00000E+000	-7.19997E-002	0.00000E+000	9	...........	1488.69
	129	3.25	-7.10775E-002	1.70138E-006	0.00000E+000	-7.09994E-002	0.00000E+000	9	...........	1488.69
	130	3.275	-7.00736E-002	1.69505E-006	0.00000E+000	-6.99992E-002	0.00000E+000	9	...........	1488.69
	131	3.3	-6.90715E-002	1.70340E-006	0.00000E+000	-6.89989E-002	0.00000E+000	9	...........	1488.69
	132	3.325	-6.80722E-002	1.69919E-006	0.00000E+000	-6.79986E-002	0.00000E+000	9	...........	1488.69
	133	3.35	-6.70734E-002	1.70271E-006	0.00000E+000	-6.69984E-002	0.00000E+000	9	...........	1488.69
	134	3.375	-6.60730E-002	1.70710E-006	0.00000E+000	-6.59981E-002	0.00000E+000	9	...........	1488.69
	135	3.4	-6.50730E-002	1.71302E-006	0.00000E+000	-6.49978E-002	0.00000E+000	9	...........	1488.69
	136	3.425	-6.40697E-002	1.71443E-006	0.00000E+000	-6.39976E-002	0.00000E+000	9	...........	1488.69
	137	3.45	-6.30712E-002	1.72320E-006	0.00000E+000	-6.29973E-002	0.00000E+000	9	...........	1488.69
	138	3.475	-6.20697E-002	1.71970E-006	0.00000E+000	-6.19970E-002	0.00000E+000	9	...........	1488.69
	139	3.5	-6.10701E-002	1.72371E-006	0.00000E+000	-6.09967E-002	0.00000E+000	9	...........	1488.69
	140	3.525	-6.00682E-002	1.72572E-006	0.00000E+000	-5.99965E-002	0.00000E+000	9	...........	1488.69
	141	3.55	-5.90685E-002	1.72716E-006	0.00000E+000	-5.89962E-002	0.00000E+000	9	...........	1488.69
	142	3.575	-5.80691E-002	1.73229E-006	0.00000E+000	-5.79959E-002	0.00000E+000	9	...........	1488.69
	143	3.6	-5.70685E-002	1.73046E-006	0.00000E+000	-5.69957E-002	0.00000E+000	9	...........	1488.69
	144	3.625	-5.60663E-002	1.73540E-006	0.00000E+000	-5.59954E-002	0.00000E+000	9	...........	1488.69
	145	3.65	-5.50669E-002	1.73540E-006	0.00000E+000	-5.49951E-002	0.00000E+000	9	...........	1488.69
	146	3.675	-5.40662E-002	1.74549E-006	0.00000E+000	-5.39949E-002	0.00000E+000	9	...........	1488.69
	147	3.7	-5.30642E-002	1.74144E-006	0.00000E+000	-5.29946E-002	0.00000E+000	9	...........	1488.69
	148	3.725	-5.20647E-002	1.74019E-006	0.00000E+000	-5.19943E-002	0.00000E+000	9	...........	1488.69
	149	3.75	-5.10630E-002	1.74658E-006	0.00000E+000	-5.09941E-002	0.00000E+000	9	...........	1488.69
	150	3.775	-5.00742E-002	1.73522E-006	0.00000E+000	-5.00063E-002	0.00000E+000	9	...........	1488.69
	151	3.8	-4.90731E-002	1.75226E-006	0.00000E+000	-4.90060E-002	0.00000E+000	9	...........	1488.69
	152	3.825	-4.80768E-002	1.74790E-006	0.00000E+000	-4.80058E-002	0.00000E+000	9	...........	1488.69
	153	3.85	-4.70776E-002	1.75061E-006	0.00000E+000	-4.70055E-002	0.00000E+000	9	...........	1488.69
	154	3.875	-4.60757E-002	1.76130E-006	0.00000E+000	-4.60052E-002	0.00000E+000	9	...........	1488.69
	155	3.9	-4.50754E-002	1.76473E-006	0.00000E+000	-4.50050E-002	0.00000E+000	9	...........	1488.69
	156	3.925	-4.40756E-002	1.76522E-006	0.00000E+000	-4.40047E-002	0.00000E+000	9	...........	1488.69
	157	3.95	-4.30717E-002	1.76705E-006	0.00000E+000	-4.30044E-002	0.00000E+000	9	...........	1488.69
	158	3.975	-4.20728E-002	1.76277E-006	0.00000E+000	-4.20042E-002	0.00000E+000	9	...........	1488.69
	159	4	-4.10729E-002	1.76834E-006	0.00000E+000	-4.10039E-002	0.00000E+000	9	...........	1488.69
	160	4.025	-4.00734E-002	1.77183E-006	0.00000E+000	-4.00036E-002	0.00000E+000	9	...........	1488.69
	161	4.05	-3.90721E-002	1.77998E-006	0.00000E+000	-3.90034E-002	0.00000E+000	9	...........	1488.69
	162	4.075	-3.80696E-002	1.78203E-006	0.00000E+000	-3.80031E-002	0.00000E+000	9	...........	1488.69
	163	4.1	-3.70685E-002	1.78858E-006	0.00000E+000	-3.70028E-002	0.00000E+000	9	...........	1488.69
	164	4.125	-3.60672E-002	1.78820E-006	0.00000E+000	-3.60026E-002	0.00000E+000	9	...........	1488.69
	165	4.15	-3.50699E-002	1.79713E-006	0.00000E+000	-3.50023E-002	0.00000E+000	9	...........	1488.69
	166	4.175	-3.40675E-002	1.79989E-006	0.00000E+000	-3.40020E-002	0.00000E+000	9	...........	1488.69
	167	4.2	-3.30681E-002	1.80370E-006	0.00000E+000	-3.30018E-002	0.00000E+000	9	...........	1488.69
	168	4.225	-3.20647E-002	1.80804E-006	0.00000E+000	-3.20015E-002	0.00000E+000	9	...........	1488.69
	169	4.25	-3.10630E-002	1.81374E-006	0.00000E+000	-3.10012E-002	0.00000E+000	9	...........	1488.69
	170	4.275	-3.00633E-002	1.81940E-006	0.00000E+000	-3.00010E-002	0.00000E+000	9	...........	1488.69
	171	4.3	-2.90645E-002	1.82196E-006	0.00000E+000	-2.90007E-002	0.00000E+000	9	...........	1488.69
	172	4.325	-2.80620E-002	1.82452E-006	0.00000E+000	-2.80004E-002	0.00000E+000	9	...........	1488.69
	173	4.35	-2.70628E-002	1.82971E-006	0.00000E+000	-2.70002E-002	0.00000E+000	9	...........	1488.69
	174	4.375	-2.60637E-002	1.83494E-006	0.00000E+000	-2.59999E-002	0.00000E+000	9	...........	1488.69
	175	4.4	-2.50608E-002	1.83764E-006	0.00000E+000	-2.49996E-002	0.00000E+000	9	...........	1488.69
	176	4.425	-2.40593E-002	1.83811E-006	0.00000E+000	-2.39994E-002	0.00000E+000	9	...........	1488.69
	177	4.45	-2.30599E-002	1.84730E-006	0.00000E+000	-2.29991E-002	0.00000E+000	9	...........	1488.69
	178	4.475	-2.20616E-002	1.85227E-006	0.00000E+000	-2.19988E-002	0.00000E+000	9	...........	1488.69
	179	4.5	-2.10612E-002	1.85861E-006	0.00000E+000	-2.09986E-002	0.00000E+000	9	...........	1488.69
	180	4.525	-2.00581E-002	1.86594E-006	0.00000E+000	-1.99983E-002	0.00000E+000	9	...........	1488.69
	181	4.55	-1.90571E-002	1.86866E-006	0.00000E+000	-1.89980E-002	0.00000E+000	9	...........	1488.69
	182	4.575	-1.80550E-002	1.87714E-006	0.00000E+000	-1.79978E-002	0.00000E+000	9	...........	1488.69
	183	4.6	-1.70563E-002	1.87129E-006	0.00000E+000	-1.69975E-002	0.00000E+000	9	...........	1488.69
	184	4.625	-1.60569E-002	1.87957E-006	0.00000E+000	-1.59972E-002	0.00000E+000	9	...........	1488.69
	185	4.65	-1.50555E-002	1.87612E-006	0.00000E+000	-1.49970E-002	0.00000E+000	9	...........	1488.69
	186	4.675	-1.40549E-002	1.88344E-006	0.00000E+000	-1.39967E-002	0.00000E+000	9	...........	1488.69
	187	4.7	-1.30525E-002	1.88552E-006	0.00000E+000	-1.29964E-002	0.00000E+000	9	...........	1488.69
	188	4.725	-1.20525E-002	1.89360E-006	0.00000E+000	-1.19962E-002	0.00000E+000	9	...........	1488.69
	189	4.75	-1.10510E-002	1.89845E-006	0.00000E+000	-1.09959E-002	0.00000E+000	9	...........	1488.69
	190	4.775	-1.00508E-002	1.90184E-006	0.00000E+000	-9.99562E-003	0.00000E+000	9	...........	1488.69
	191	4.8	-9.05083E-003	1.90977E-006	0.00000E+000	-8.99535E-003	0.00000E+000	9	...........	1488.69
	192	4.825	-8.05083E-003	1.91173E-006	0.00000E+000	-7.99508E-003	0.00000E+000	9	...........	1488.69
	193	4.85	-7.05142E-003	1.91983E-006	0.00000E+000	-6.99481E-003	0.00000E+000	9	...........	1488.69
	194	4.875	-6.05140E-003	1.92342E-006	0.00000E+000	-5.99455E-003	0.00000E+000	9	...........	1488.69
	195	4.9	-5.04853E-003	1.92889E-006	0.00000E+000	-4.99428E-003	0.00000E+000	9	...........	1488.69
	196	4.925	-4.06010E-003	1.92575E-006	0.00000E+000	-4.00651E-003	0.00000E+000	9	...........	1488.69
	197	4.95	-3.06123E-003	1.94145E-006	0.00000E+000	-3.00625E-003	0.00000E+000	9	...........	1488.69
	198	4.975	-2.06082E-003	1.94450E-006	0.00000E+000	-2.00598E-003	0.00000E+000	9	...........	1488.69
	199	5	-1.06031E-003	1.95049E-006	0.00000E+000	-1.00572E-003	0.00000E+000	9	...........	1488.69
	200	5.025	-5.83447E-005	1.96245E-006	0.00000E+000	-5.44637E-006	0.00000E+000	9	...........	1488.69
	201	5.05	-1.04319E-003	1.50598E-007	0.00000E+000	-1.00572E-003	0.00000E+000	9	...........	1488.69
	202	5.075	-2.04430E-003	6.03432E-008	0.00000E+000	-2.00598E-003	0.00000E+000	9	...........	1488.69
	203	5.1	-3.04331E-003	1.68305E-008	0.00000E+000	-3.00625E-003	0.00000E+000	9	...........	1488.69
	204	5.125	-4.04175E-003	-1.76856E-008	0.00000E+000	-4.00651E-003	0.00000E+000	9	...........	1488.69
	205	5.15	-5.02933E-003	-4.26487E-008	0.00000E+000	-4.99428E-003	0.00000E+000	9	...........	1488.69
	206	5.175	-6.03221E-003	-7.87459E-008	0.00000E+000	-5.99455E-003	0.00000E+000	9	...........	1488.69
	207	5.2	-7.03161E-003	-9.42671E-008	0.00000E+000	-6.99481E-003	0.00000E+000	9	...........	1488.69
	208	5.225	-8.03240E-003	-1.21991E-007	0.00000E+000	-7.99508E-003	0.00000E+000	9	...........	1488.69
	209	5.25	-9.03185E-003	-1.42634E-007	0.00000E+000	-8.99535E-003	0.00000E+000	9	...........	1488.69
	210	5.275	-1.00333E-002	-1.54147E-007	0.00000E+000	-9.99562E-003	0.00000E+000	9	...........	1488.69
	211	5.3	-1.10338E-002	-1.62988E-007	0.00000E+000	-1.09959E-002	0.00000E+000	9	...........	1488.74
	212	5.325	-1.20355E-002	-1.80424E-007	0.00000E+000	-1.19962E-002	0.00000E+000	9	...........	1488.88
	213	5.35	-1.30353E-002	-1.95945E-007	0.00000E+000	-1.29964E-002	0.00000E+000	9	...........	1488.88
	214	5.375	-1.40364E-002	-2.11266E-007	0.00000E+000	-1.39967E-002	0.00000E+000	9	...........	1488.88
	215	5.4	-1.50389E-002	-2.22155E-007	0.00000E+000	-1.49970E-002	0.00000E+000	9	...........	1488.88
	216	5.425	-1.60388E-002	-2.38189E-007	0.00000E+000	-1.59972E-002	0.00000E+000	9	...........	1488.88
	217	5.45	-1.70381E-002	-2.42575E-007	0.00000E+000	-1.69975E-002	0.00000E+000	9	...........	1488.88
	218	5.475	-1.80373E-002	-2.60791E-007	0.00000E+000	-1.79978E-002	0.00000E+000	9	...........	1488.88
	219	5.5	-1.90395E-002	-2.70545E-007	0.00000E+000	-1.89980E-002	0.00000E+000	9	...........	1488.88
	220	5.525	-2.00416E-002	-2.75822E-007	0.00000E+000	-1.99983E-002	0.00000E+000	9	...........	1488.88
	221	5.55	-2.10431E-002	-2.82325E-007	0.00000E+000	-2.09986E-002	0.00000E+000	9	...........	1488.88
	222	5.575	-2.20451E-002	-3.01186E-007	0.00000E+000	-2.19988E-002	0.00000E+000	9	...........	1488.88
	223	5.6	-2.30426E-002	-3.03680E-007	0.00000E+000	-2.29991E-002	0.00000E+000	9	...........	1488.88
	224	5.625	-2.40420E-002	-3.05751E-007	0.00000E+000	-2.39994E-002	0.00000E+000	9	...........	1488.88
	225	5.65	-2.50425E-002	-3.14369E-007	0.00000E+000	-2.49996E-002	0.00000E+000	9	...........	1488.88
	226	5.675	-2.60457E-002	-3.36771E-007	0.00000E+000	-2.59999E-002	0.00000E+000	9	...........	1488.88
	227	5.7	-2.70459E-002	-3.41514E-007	0.00000E+000	-2.70002E-002	0.00000E+000	9	...........	1488.88
	228	5.725	-2.80444E-002	-3.39377E-007	0.00000E+000	-2.80004E-002	0.00000E+000	9	...........	1488.88
	229	5.75	-2.90469E-002	-3.48373E-007	0.00000E+000	-2.90007E-002	0.00000E+000	9	...........	1488.88
	230	5.775	-3.00462E-002	-3.55967E-007	0.00000E+000	-3.00010E-002	0.00000E+000	9	...........	1488.88
	231	5.8	-3.10464E-002	-3.69506E-007	0.00000E+000	-3.10012E-002	0.00000E+000	9	...........	1488.88
	232	5.825	-3.20486E-002	-3.72935E-007	0.00000E+000	-3.20015E-002	0.00000E+000	9	...........	1488.88
	233	5.85	-3.30491E-002	-3.79616E-007	0.00000E+000	-3.30018E-002	0.00000E+000	9	...........	1488.88
	234	5.875	-3.40500E-002	-3.89659E-007	0.00000E+000	-3.40020E-002	0.00000E+000	9	...........	1488.88
	235	5.9	-3.50515E-002	-3.91106E-007	0.00000E+000	-3.50023E-002	0.00000E+000	9	...........	1488.88
	236	5.925	-3.60479E-002	-3.97698E-007	0.00000E+000	-3.60026E-002	0.00000E+000	9	...........	1488.88
	237	5.95	-3.70510E-002	-4.08253E-007	0.00000E+000	-3.70028E-002	0.00000E+000	9	...........	1488.88
	238	5.975	-3.80516E-002	-4.13375E-007	0.00000E+000	-3.80031E-002	0.00000E+000	9	...........	1488.88
	239	6	-3.90543E-002	-4.18653E-007	0.00000E+000	-3.90034E-002	0.00000E+000	9	...........	1488.88
	240	6.025	-4.00548E-002	-4.19543E-007	0.00000E+000	-4.00036E-002	0.00000E+000	9	...........	1488.88
	241	6.05	-4.10537E-002	-4.21748E-007	0.00000E+000	-4.10039E-002	0.00000E+000	9	...........	1488.88
	242	6.075	-4.20541E-002	-4.34196E-007	0.00000E+000	-4.20042E-002	0.00000E+000	9	...........	1488.88
	243	6.1	-4.30532E-002	-4.44885E-007	0.00000E+000	-4.30044E-002	0.00000E+000	9	...........	1488.88
	244	6.125	-4.40568E-002	-4.46644E-007	0.00000E+000	-4.40047E-002	0.00000E+000	9	...........	1488.88
	245	6.15	-4.50578E-002	-4.49316E-007	0.00000E+000	-4.50050E-002	0.00000E+000	9	...........	1488.88
	246	6.175	-4.60568E-002	-4.57956E-007	0.00000E+000	-4.60052E-002	0.00000E+000	9	...........	1488.88
	247	6.2	-4.70595E-002	-4.61430E-007	0.00000E+000	-4.70055E-002	0.00000E+000	9	...........	1488.88
	248	6.225	-4.80592E-002	-4.61497E-007	0.00000E+000	-4.80058E-002	0.00000E+000	9	...........	1488.88
	249	6.25	-4.90563E-002	-4.67287E-007	0.00000E+000	-4.90060E-002	0.00000E+000	9	...........	1488.88
	250	6.275	-5.00571E-002	-4.74858E-007	0.00000E+000	-5.00063E-002	0.00000E+000	9	...........	1488.88
	251	6.3	-5.10457E-002	-4.73968E-007	0.00000E+000	-5.09941E-002	0.00000E+000	9	...........	1488.82
	252	6.325	-5.20472E-002	-4.82385E-007	0.00000E+000	-5.19943E-002	0.00000E+000	9	...........	1488.69
	253	6.35	-5.30482E-002	-4.88308E-007	0.00000E+000	-5.29946E-002	0.00000E+000	9	...........	1488.69
	254	6.375	-5.40489E-002	-4.94878E-007	0.00000E+000	-5.39949E-002	0.00000E+000	9	...........	1488.69
	255	6.4	-5.50498E-002	-5.08484E-007	0.00000E+000	-5.49951E-002	0.00000E+000	9	...........	1488.69
	256	6.425	-5.60505E-002	-5.10399E-007	0.00000E+000	-5.59954E-002	0.00000E+000	9	...........	1488.69
	257	6.45	-5.70518E-002	-5.14897E-007	0.00000E+000	-5.69957E-002	0.00000E+000	9	...........	1488.69
	258	6.475	-5.80528E-002	-5.20531E-007	0.00000E+000	-5.79959E-002	0.00000E+000	9	...........	1488.69
	259	6.5	-5.90509E-002	-5.25118E-007	0.00000E+000	-5.89962E-002	0.00000E+000	9	...........	1488.69
	260	6.525	-6.00536E-002	-5.35473E-007	0.00000E+000	-5.99965E-002	0.00000E+000	9	...........	1488.69
	261	6.55	-6.10532E-002	-5.28102E-007	0.00000E+000	-6.09967E-002	0.00000E+000	9	...........	1488.69
	262	6.575	-6.20540E-002	-5.41374E-007	0.00000E+000	-6.19970E-002	0.00000E+000	9	...........	1488.69
	263	6.6	-6.30559E-002	-5.45873E-007	0.00000E+000	-6.29973E-002	0.00000E+000	9	...........	1488.69
	264	6.625	-6.40535E-002	-5.46073E-007	0.00000E+000	-6.39976E-002	0.00000E+000	9	...........	1488.69
	265	6.65	-6.50553E-002	-5.52486E-007	0.00000E+000	-6.49978E-002	0.00000E+000	9	...........	1488.69
	266	6.675	-6.60552E-002	-5.56962E-007	0.00000E+000	-6.59981E-002	0.00000E+000	9	...........	1488.69
	267	6.7	-6.70561E-002	-5.71325E-007	0.00000E+000	-6.69984E-002	0.00000E+000	9	...........	1488.69
	268	6.725	-6.80554E-002	-5.62552E-007	0.00000E+000	-6.79986E-002	0.00000E+000	9	...........	1488.69
	269	6.75	-6.90550E-002	-5.67740E-007	0.00000E+000	-6.89989E-002	0.00000E+000	9	...........	1488.69
	270	6.775	-7.00577E-002	-5.74176E-007	0.00000E+000	-6.99992E-002	0.00000E+000	9	...........	1488.69
	271	6.8	-7.10607E-002	-5.81413E-007	0.00000E+000	-7.09994E-002	0.00000E+000	9	...........	1488.69
	272	6.825	-7.20595E-002	-5.88205E-007	0.00000E+000	-7.19997E-002	0.00000E+000	9	...........	1488.69
	273	6.85	-7.30599E-002	-5.91879E-007	0.00000E+000	-7.30000E-002	0.00000E+000	9	...........	1488.69
	274	6.875	-7.40608E-002	-5.96444E-007	0.00000E+000	-7.40002E-002	0.00000E+000	9	...........	1488.69
	275	6.9	-7.50589E-002	-6.01522E-007	0.00000E+000	-7.50005E-002	0.00000E+000	9	...........	1488.69
	276	6.925	-7.60591E-002	-6.02680E-007	0.00000E+000	-7.60008E-002	0.00000E+000	9	...........	1488.69
	277	6.95	-7.70580E-002	-6.05730E-007	0.00000E+000	-7.70010E-002	0.00000E+000	9	...........	1488.69
	278	6.975	-7.80612E-002	-6.15729E-007	0.00000E+000	-7.80013E-002	0.00000E+000	9	...........	1488.69
	279	7	-7.90607E-002	-6.23946E-007	0.00000E+000	-7.90016E-002	0.00000E+000	9	...........	1488.69
	280	7.025	-8.00625E-002	-6.22231E-007	0.00000E+000	-8.00018E-002	0.00000E+000	9	...........	1488.69
	281	7.05	-8.10617E-002	-6.23701E-007	0.00000E+000	-8.10021E-002	0.00000E+000	9	...........	1488.69
	282	7.075	-8.20599E-002	-6.25972E-007	0.00000E+000	-8.20024E-002	0.00000E+000	9	...........	1488.69
	283	7.1	-8.30609E-002	-6.35370E-007	0.00000E+000	-8.30026E-002	0.00000E+000	9	...........	1488.69
	284	7.125	-8.40615E-002	-6.40692E-007	0.00000E+000	-8.40029E-002	0.00000E+000	9	...........	1488.69
	285	7.15	-8.50637E-002	-6.42228E-007	0.00000E+000	-8.50032E-002	0.00000E+000	9	...........	1488.69
	286	7.175	-8.60637E-002	-6.47862E-007	0.00000E+000	-8.60034E-002	0.00000E+000	9	...........	1488.69
	287	7.2	-8.70628E-002	-6.53719E-007	0.00000E+000	-8.70037E-002	0.00000E+000	9	...........	1488.69
	288	7.225	-8.80633E-002	-6.57438E-007	0.00000E+000	-8.80040E-002	0.00000E+000	9	...........	1488.69
	289	7.25	-8.90658E-002	-6.69062E-007	0.00000E+000	-8.90042E-002	0.00000E+000	9	...........	1488.69
	290	7.275	-9.00650E-002	-6.75097E-007	0.00000E+000	-9.00045E-002	0.00000E+000	9	...........	1488.69
	291	7.3	-9.10665E-002	-6.76767E-007	0.00000E+000	-9.10048E-002	0.00000E+000	9	...........	1488.78
	292	7.325	-9.20670E-002	-6.83626E-007	0.00000E+000	-9.20050E-002	0.00000E+000	9	...........	1488.97
	293	7.35	-9.30678E-002	-6.86476E-007	0.00000E+000	-9.30053E-002	0.00000E+000	9	...........	1488.97
	294	7.375	-9.40680E-002	-6.92711E-007	0.00000E+000	-9.40056E-002	0.00000E+000	9	...........	1488.97
	295	7.4	-9.50665E-002	-6.97165E-007	0.00000E+000	-9.50058E-002	0.00000E+000	9	...........	1488.97
	296	7.425	-9.60685E-002	-6.98924E-007	0.00000E+000	-9.60061E-002	0.00000E+000	9	...........	1488.97
	297	7.45	-9.70698E-002	-7.01975E-007	0.00000E+000	-9.70064E-002	0.00000E+000	9	...........	1488.97
	298	7.475	-9.80584E-002	-6.89638E-007	0.00000E+000	-9.79941E-002	0.00000E+000	9	...........	1488.97
	299	7.5	-9.90596E-002	-7.09747E-007	0.00000E+000	-9.89944E-002	0.00000E+000	9	...........	1488.97
	300	7.525	-1.00058E-001	-7.10637E-007	0.00000E+000	-9.99947E-002	0.00000E+000	9	...........	1488.97
	301	7.55	-1.01057E-001	-7.13376E-007	0.00000E+000	-1.00995E-001	0.00000E+000	9	...........	1488.97
	302	7.575	-1.02059E-001	-7.21883E-007	0.00000E+000	-1.01995E-001	0.00000E+000	9	...........	1488.97
	303	7.6	-1.03060E-001	-7.31948E-007	0.00000E+000	-1.02995E-001	0.00000E+000	9	...........	1488.97
	304	7.625	-1.04062E-001	-7.34665E-007	0.00000E+000	-1.03996E-001	0.00000E+000	9	...........	1488.97
	305	7.65	-1.05061E-001	-7.35088E-007	0.00000E+000	-1.04996E-001	0.00000E+000	9	...........	1488.97
	306	7.675	-1.06060E-001	-7.48917E-007	0.00000E+000	-1.05996E-001	0.00000E+000	9	...........	1488.97
	307	7.7	-1.07057E-001	-7.51233E-007	0.00000E+000	-1.06997E-001	0.00000E+000	9	...........	1488.97
	308	7.725	-1.08057E-001	-7.61365E-007	0.00000E+000	-1.07997E-001	0.00000E+000	9	...........	1488.97
	309	7.75	-1.09060E-001	-7.71096E-007	0.00000E+000	-1.08997E-001	0.00000E+000	9	...........	1488.97
	310	7.775	-1.10059E-001	-7.67511E-007	0.00000E+000	-1.09997E-001	0.00000E+000	9	...........	1488.97
	311	7.8	-1.11060E-001	-7.72588E-007	0.00000E+000	-1.10998E-001	0.00000E+000	9	...........	1488.97
	312	7.825	-1.12062E-001	-7.71764E-007	0.00000E+000	-1.11998E-001	0.00000E+000	9	...........	1488.97
	313	7.85	-1.13059E-001	-7.73457E-007	0.00000E+000	-1.12998E-001	0.00000E+000	9	...........	1488.97
	314	7.875	-1.14062E-001	-7.81050E-007	0.00000E+000	-1.13998E-001	0.00000E+000	9	...........	1488.97
	315	7.9	-1.15064E-001	-7.91160E-007	0.00000E+000	-1.14999E-001	0.00000E+000	9	...........	1488.97
	316	7.925	-1.16065E-001	-7.96059E-007	0.00000E+000	-1.15999E-001	0.00000E+000	9	...........	1488.97
	317	7.95	-1.17066E-001	-8.01114E-007	0.00000E+000	-1.16999E-001	0.00000E+000	9	...........	1488.97
	318	7.975	-1.18064E-001	-8.10244E-007	0.00000E+000	-1.17999E-001	0.00000E+000	9	...........	1488.97
	319	8	-1.19065E-001	-8.11937E-007	0.00000E+000	-1.19000E-001	0.00000E+000	9	...........	1488.97
	320	8.025	-1.20063E-001	-8.16591E-007	0.00000E+000	-1.20000E-001	0.00000E+000	9	...........	1488.97
	321	8.05	-1.21066E-001	-8.19085E-007	0.00000E+000	-1.21000E-001	0.00000E+000	9	...........	1488.97
	322	8.075	-1.22067E-001	-8.29729E-007	0.00000E+000	-1.22001E-001	0.00000E+000	9	...........	1488.97
	323	8.1	-1.23065E-001	-8.29351E-007	0.00000E+000	-1.23001E-001	0.00000E+000	9	...........	1488.97
	324	8.125	-1.24066E-001	-8.33760E-007	0.00000E+000	-1.24001E-001	0.00000E+000	9	...........	1488.97
	325	8.15	-1.25067E-001	-8.36633E-007	0.00000E+000	-1.25001E-001	0.00000E+000	9	...........	1488.97
	326	8.175	-1.26066E-001	-8.43113E-007	0.00000E+000	-1.26002E-001	0.00000E+000	9	...........	1488.97
	327	8.2	-1.27066E-001	-8.52866E-007	0.00000E+000	-1.27002E-001	0.00000E+000	9	...........	1488.97
	328	8.225	-1.28067E-001	-8.54536E-007	0.00000E+000	-1.28002E-001	0.00000E+000	9	...........	1488.97
	329	8.25	-1.29070E-001	-8.60371E-007	0.00000E+000	-1.29002E-001	0.00000E+000	9	...........	1488.97
	330	8.275	-1.30070E-001	-8.66138E-007	0.00000E+000	-1.30003E-001	0.00000E+000	9	...........	1488.97
	331	8.3	-1.31070E-001	-8.76627E-007	0.00000E+000	-1.31003E-001	0.00000E+000	9	...........	1488.87
	332	8.325	-1.32069E-001	-8.82149E-007	0.00000E+000	-1.32003E-001	0.00000E+000	9	...........	1488.69
	333	8.35	-1.33069E-001	-8.79433E-007	0.00000E+000	-1.33004E-001	0.00000E+000	9	...........	1488.69
	334	8.375	-1.34071E-001	-8.84042E-007	0.00000E+000	-1.34004E-001	0.00000E+000	9	...........	1488.69
	335	8.4	-1.35071E-001	-8.96089E-007	0.00000E+000	-1.35004E-001	0.00000E+000	9	...........	1488.69
	336	8.425	-1.36071E-001	-8.89387E-007	0.00000E+000	-1.36004E-001	0.00000E+000	9	...........	1488.69
	337	8.45	-1.37073E-001	-9.03060E-007	0.00000E+000	-1.37005E-001	0.00000E+000	9	...........	1488.69
	338	8.475	-1.38073E-001	-9.03572E-007	0.00000E+000	-1.38005E-001	0.00000E+000	9	...........	1488.69
	339	8.5	-1.39073E-001	-9.17534E-007	0.00000E+000	-1.39005E-001	0.00000E+000	9	...........	1488.69
	340	8.525	-1.40074E-001	-9.20941E-007	0.00000E+000	-1.40005E-001	0.00000E+000	9	...........	1488.69
	341	8.55	-1.41073E-001	-9.23123E-007	0.00000E+000	-1.41006E-001	0.00000E+000	9	...........	1488.69
	342	8.575	-1.42074E-001	-9.34436E-007	0.00000E+000	-1.42006E-001	0.00000E+000	9	...........	1488.69
	343	8.6	-1.43076E-001	-9.38912E-007	0.00000E+000	-1.43006E-001	0.00000E+000	9	...........	1488.69
	344	8.625	-1.44063E-001	-9.30450E-007	0.00000E+000	-1.43994E-001	0.00000E+000	9	...........	1488.69
	345	8.65	-1.45063E-001	-9.49311E-007	0.00000E+000	-1.44994E-001	0.00000E+000	9	...........	1488.69
	346	8.675	-1.46062E-001	-9.56393E-007	0.00000E+000	-1.45994E-001	0.00000E+000	9	...........	1488.69
	347	8.7	-1.47065E-001	-9.61381E-007	0.00000E+000	-1.46995E-001	0.00000E+000	9	...........	1488.69
	348	8.725	-1.48066E-001	-9.66413E-007	0.00000E+000	-1.47995E-001	0.00000E+000	9	...........	1488.69
	349	8.75	-1.49063E-001	-9.67505E-007	0.00000E+000	-1.48995E-001	0.00000E+000	9	...........	1488.69
	350	8.775	-1.50065E-001	-9.72960E-007	0.00000E+000	-1.49996E-001	0.00000E+000	9	...........	1488.69
	351	8.8	-1.51064E-001	-9.82001E-007	0.00000E+000	-1.50996E-001	0.00000E+000	9	...........	1488.69
	352	8.825	-1.52063E-001	-9.81667E-007	0.00000E+000	-1.51996E-001	0.00000E+000	9	...........	1488.69
	353	8.85	-1.53063E-001	-9.94850E-007	0.00000E+000	-1.52996E-001	0.00000E+000	9	...........	1488.69
	354	8.875	-1.54064E-001	-1.01142E-006	0.00000E+000	-1.53997E-001	0.00000E+000	9	...........	1488.69
	355	8.9	-1.55067E-001	-1.01496E-006	0.00000E+000	-1.54997E-001	0.00000E+000	9	...........	1488.69
	356	8.925	-1.56067E-001	-1.01823E-006	0.00000E+000	-1.55997E-001	0.00000E+000	9	...........	1488.69
	357	8.95	-1.57066E-001	-1.02180E-006	0.00000E+000	-1.56997E-001	0.00000E+000	9	...........	1488.69
	358	8.975	-1.58066E-001	-1.02640E-006	0.00000E+000	-1.57998E-001	0.00000E+000	9	...........	1488.69
	359	9	-1.59064E-001	-1.04444E-006	0.00000E+000	-1.58998E-001	0.00000E+000	9	...........	1488.69
	360	9.025	-1.60068E-001	-1.04335E-006	0.00000E+000	-1.59998E-001	0.00000E+000	9	...........	1488.69
	361	9.05	-1.61069E-001	-1.05584E-006	0.00000E+000	-1.60998E-001	0.00000E+000	9	...........	1488.69
	362	9.075	-1.62069E-001	-1.06493E-006	0.00000E+000	-1.61999E-001	0.00000E+000	9	...........	1488.69
	363	9.1	-1.63070E-001	-1.06782E-006	0.00000E+000	-1.62999E-001	0.00000E+000	9	...........	1488.69
	364	9.125	-1.64070E-001	-1.07940E-006	0.00000E+000	-1.63999E-001	0.00000E+000	9	...........	1488.69
	365	9.15	-1.65069E-001	-1.07611E-006	0.00000E+000	-1.65000E-001	0.00000E+000	9	...........	1488.69
	366	9.175	-1.66068E-001	-1.10011E-006	0.00000E+000	-1.66000E-001	0.00000E+000	9	...........	1488.69
	367	9.2	-1.67070E-001	-1.10312E-006	0.00000E+000	-1.67000E-001	0.00000E+000	9	...........	1488.69
	368	9.225	-1.68069E-001	-1.10630E-006	0.00000E+000	-1.68000E-001	0.00000E+000	9	...........	1488.69
	369	9.25	-1.69070E-001	-1.11659E-006	0.00000E+000	-1.69001E-001	0.00000E+000	9	...........	1488.69
	370	9.275	-1.70069E-001	-1.12911E-006	0.00000E+000	-1.70001E-001	0.00000E+000	9	...........	1488.69
	371	9.3	-1.71070E-001	-1.13347E-006	0.00000E+000	-1.71001E-001	0.00000E+000	9	...........	1488.80
	372	9.325	-1.72071E-001	-1.13991E-006	0.00000E+000	-1.72001E-001	0.00000E+000	9	...........	1488.97
	373	9.35	-1.73071E-001	-1.15414E-006	0.00000E+000	-1.73002E-001	0.00000E+000	9	...........	1488.97
	374	9.375	-1.74071E-001	-1.16536E-006	0.00000E+000	-1.74002E-001	0.00000E+000	9	...........	1488.97
	375	9.4	-1.75072E-001	-1.16819E-006	0.00000E+000	-1.75002E-001	0.00000E+000	9	...........	1488.97
	376	9.425	-1.76073E-001	-1.18505E-006	0.00000E+000	-1.76002E-001	0.00000E+000	9	...........	1488.97
	377	9.45	-1.77070E-001	-1.19453E-006	0.00000E+000	-1.77003E-001	0.00000E+000	9	...........	1488.97
	378	9.475	-1.78073E-001	-1.20533E-006	0.00000E+000	-1.78003E-001	0.00000E+000	9	...........	1488.97
[...]
	1008	25.225	-8.03283E-003	-1.33972E-007	0.00000E+000	-7.99508E-003	0.00000E+000	9	...........	1488.69
	1009	25.25	-9.03312E-003	-1.47222E-007	0.00000E+000	-8.99535E-003	0.00000E+000	9	...........	1488.69
	1010	25.275	-1.00318E-002	-1.66016E-007	0.00000E+000	-9.99562E-003	0.00000E+000	9	...........	1488.69
	1011	25.3	-1.10332E-002	-1.78776E-007	0.00000E+000	-1.09959E-002	0.00000E+000	9	...........	1488.69
	1012	25.325	-1.20343E-002	-1.89799E-007	0.00000E+000	-1.19962E-002	0.00000E+000	9	...........	1488.69
	1013	25.35	-1.30342E-002	-2.06812E-007	0.00000E+000	-1.29964E-002	0.00000E+000	9	...........	1488.69
	1014	25.375	-1.40352E-002	-2.13649E-007	0.00000E+000	-1.39967E-002	0.00000E+000	9	...........	1488.69
	1015	25.4	-1.50384E-002	-2.29771E-007	0.00000E+000	-1.49970E-002	0.00000E+000	9	...........	1488.69
	1016	25.425	-1.60379E-002	-2.43533E-007	0.00000E+000	-1.59972E-002	0.00000E+000	9	...........	1488.69
	1017	25.45	-1.70359E-002	-2.47586E-007	0.00000E+000	-1.69975E-002	0.00000E+000	9	...........	1488.69
	1018	25.475	-1.80365E-002	-2.64065E-007	0.00000E+000	-1.79978E-002	0.00000E+000	9	...........	1488.69
	1019	25.5	-1.90389E-002	-2.79742E-007	0.00000E+000	-1.89980E-002	0.00000E+000	9	...........	1488.69
	1020	25.525	-2.00403E-002	-2.87981E-007	0.00000E+000	-1.99983E-002	0.00000E+000	9	...........	1488.69
	1021	25.55	-2.10430E-002	-3.00095E-007	0.00000E+000	-2.09986E-002	0.00000E+000	9	...........	1488.69
	1022	25.575	-2.20434E-002	-3.03547E-007	0.00000E+000	-2.19988E-002	0.00000E+000	9	...........	1488.69
	1023	25.6	-2.30417E-002	-3.12543E-007	0.00000E+000	-2.29991E-002	0.00000E+000	9	...........	1488.69
	1024	25.625	-2.40414E-002	-3.17531E-007	0.00000E+000	-2.39994E-002	0.00000E+000	9	...........	1488.69
	1025	25.65	-2.50430E-002	-3.30603E-007	0.00000E+000	-2.49996E-002	0.00000E+000	9	...........	1488.69
	1026	25.675	-2.60470E-002	-3.29044E-007	0.00000E+000	-2.59999E-002	0.00000E+000	9	...........	1488.69
	1027	25.7	-2.70463E-002	-3.45701E-007	0.00000E+000	-2.70002E-002	0.00000E+000	9	...........	1488.69
	1028	25.725	-2.80461E-002	-3.52404E-007	0.00000E+000	-2.80004E-002	0.00000E+000	9	...........	1488.69
	1029	25.75	-2.90473E-002	-3.64919E-007	0.00000E+000	-2.90007E-002	0.00000E+000	9	...........	1488.69
	1030	25.775	-3.00462E-002	-3.69061E-007	0.00000E+000	-3.00010E-002	0.00000E+000	9	...........	1488.69
	1031	25.8	-3.10473E-002	-3.75496E-007	0.00000E+000	-3.10012E-002	0.00000E+000	9	...........	1488.69
	1032	25.825	-3.20473E-002	-3.78636E-007	0.00000E+000	-3.20015E-002	0.00000E+000	9	...........	1488.69
	1033	25.85	-3.30491E-002	-3.81776E-007	0.00000E+000	-3.30018E-002	0.00000E+000	9	...........	1488.69
	1034	25.875	-3.40502E-002	-3.96763E-007	0.00000E+000	-3.40020E-002	0.00000E+000	9	...........	1488.69
	1035	25.9	-3.50520E-002	-4.03399E-007	0.00000E+000	-3.50023E-002	0.00000E+000	9	...........	1488.69
	1036	25.925	-3.60487E-002	-4.07763E-007	0.00000E+000	-3.60026E-002	0.00000E+000	9	...........	1488.69
	1037	25.95	-3.70499E-002	-4.18207E-007	0.00000E+000	-3.70028E-002	0.00000E+000	9	...........	1488.69
	1038	25.975	-3.80525E-002	-4.22349E-007	0.00000E+000	-3.80031E-002	0.00000E+000	9	...........	1488.69
	1039	26	-3.90537E-002	-4.33149E-007	0.00000E+000	-3.90034E-002	0.00000E+000	9	...........	1488.69
	1040	26.025	-4.00558E-002	-4.31902E-007	0.00000E+000	-4.00036E-002	0.00000E+000	9	...........	1488.69
	1041	26.05	-4.10532E-002	-4.34218E-007	0.00000E+000	-4.10039E-002	0.00000E+000	9	...........	1488.69
	1042	26.075	-4.20550E-002	-4.41166E-007	0.00000E+000	-4.20042E-002	0.00000E+000	9	...........	1488.69
	1043	26.1	-4.30540E-002	-4.45130E-007	0.00000E+000	-4.30044E-002	0.00000E+000	9	...........	1488.69
	1044	26.125	-4.40574E-002	-4.58602E-007	0.00000E+000	-4.40047E-002	0.00000E+000	9	...........	1488.69
	1045	26.15	-4.50568E-002	-4.58446E-007	0.00000E+000	-4.50050E-002	0.00000E+000	9	...........	1488.69
	1046	26.175	-4.60567E-002	-4.75326E-007	0.00000E+000	-4.60052E-002	0.00000E+000	9	...........	1488.69
	1047	26.2	-4.70594E-002	-4.79468E-007	0.00000E+000	-4.70055E-002	0.00000E+000	9	...........	1488.69
	1048	26.225	-4.80602E-002	-4.83588E-007	0.00000E+000	-4.80058E-002	0.00000E+000	9	...........	1488.69
	1049	26.25	-4.90564E-002	-4.85636E-007	0.00000E+000	-4.90060E-002	0.00000E+000	9	...........	1488.69
	1050	26.275	-5.00569E-002	-4.96436E-007	0.00000E+000	-5.00063E-002	0.00000E+000	9	...........	1488.69
	1051	26.3	-5.10463E-002	-4.93675E-007	0.00000E+000	-5.09941E-002	0.00000E+000	9	...........	1488.69
	1052	26.325	-5.20491E-002	-5.05901E-007	0.00000E+000	-5.19943E-002	0.00000E+000	9	...........	1488.69
	1053	26.35	-5.30496E-002	-5.04898E-007	0.00000E+000	-5.29946E-002	0.00000E+000	9	...........	1488.69
	1054	26.375	-5.40495E-002	-5.15743E-007	0.00000E+000	-5.39949E-002	0.00000E+000	9	...........	1488.69
	1055	26.4	-5.50508E-002	-5.15075E-007	0.00000E+000	-5.49951E-002	0.00000E+000	9	...........	1488.69
	1056	26.425	-5.60490E-002	-5.20130E-007	0.00000E+000	-5.59954E-002	0.00000E+000	9	...........	1488.69
	1057	26.45	-5.70512E-002	-5.20910E-007	0.00000E+000	-5.69957E-002	0.00000E+000	9	...........	1488.69
	1058	26.475	-5.80514E-002	-5.33603E-007	0.00000E+000	-5.79959E-002	0.00000E+000	9	...........	1488.69
	1059	26.5	-5.90519E-002	-5.38902E-007	0.00000E+000	-5.89962E-002	0.00000E+000	9	...........	1488.69
	1060	26.525	-6.00537E-002	-5.36163E-007	0.00000E+000	-5.99965E-002	0.00000E+000	9	...........	1488.69
	1061	26.55	-6.10530E-002	-5.34315E-007	0.00000E+000	-6.09967E-002	0.00000E+000	9	...........	1488.69
	1062	26.575	-6.20538E-002	-5.44358E-007	0.00000E+000	-6.19970E-002	0.00000E+000	9	...........	1488.69
	1063	26.6	-6.30559E-002	-5.55849E-007	0.00000E+000	-6.29973E-002	0.00000E+000	9	...........	1488.69
	1064	26.625	-6.40528E-002	-5.53911E-007	0.00000E+000	-6.39976E-002	0.00000E+000	9	...........	1488.69
	1065	26.65	-6.50556E-002	-5.65113E-007	0.00000E+000	-6.49978E-002	0.00000E+000	9	...........	1488.69
	1066	26.675	-6.60562E-002	-5.76135E-007	0.00000E+000	-6.59981E-002	0.00000E+000	9	...........	1488.69
	1067	26.7	-6.70565E-002	-5.71548E-007	0.00000E+000	-6.69984E-002	0.00000E+000	9	...........	1488.69
	1068	26.725	-6.80561E-002	-5.79186E-007	0.00000E+000	-6.79986E-002	0.00000E+000	9	...........	1488.69
	1069	26.75	-6.90549E-002	-5.81970E-007	0.00000E+000	-6.89989E-002	0.00000E+000	9	...........	1488.69
	1070	26.775	-7.00570E-002	-5.92436E-007	0.00000E+000	-6.99992E-002	0.00000E+000	9	...........	1488.69
	1071	26.8	-7.10603E-002	-5.95309E-007	0.00000E+000	-7.09994E-002	0.00000E+000	9	...........	1488.69
	1072	26.825	-7.20602E-002	-5.97291E-007	0.00000E+000	-7.19997E-002	0.00000E+000	9	...........	1488.69
	1073	26.85	-7.30608E-002	-6.02546E-007	0.00000E+000	-7.30000E-002	0.00000E+000	9	...........	1488.69
	1074	26.875	-7.40605E-002	-6.08670E-007	0.00000E+000	-7.40002E-002	0.00000E+000	9	...........	1488.69
	1075	26.9	-7.50600E-002	-6.11320E-007	0.00000E+000	-7.50005E-002	0.00000E+000	9	...........	1488.69
	1076	26.925	-7.60612E-002	-6.12166E-007	0.00000E+000	-7.60008E-002	0.00000E+000	9	...........	1488.69
	1077	26.95	-7.70608E-002	-6.13190E-007	0.00000E+000	-7.70010E-002	0.00000E+000	9	...........	1488.69
	1078	26.975	-7.80627E-002	-6.24102E-007	0.00000E+000	-7.80013E-002	0.00000E+000	9	...........	1488.69
	1079	27	-7.90636E-002	-6.29157E-007	0.00000E+000	-7.90016E-002	0.00000E+000	9	...........	1488.69
	1080	27.025	-8.00648E-002	-6.33187E-007	0.00000E+000	-8.00018E-002	0.00000E+000	9	...........	1488.69
	1081	27.05	-8.10637E-002	-6.29290E-007	0.00000E+000	-8.10021E-002	0.00000E+000	9	...........	1488.69
	1082	27.075	-8.20636E-002	-6.42986E-007	0.00000E+000	-8.20024E-002	0.00000E+000	9	...........	1488.69
	1083	27.1	-8.30618E-002	-6.45947E-007	0.00000E+000	-8.30026E-002	0.00000E+000	9	...........	1488.69
	1084	27.125	-8.40630E-002	-6.52405E-007	0.00000E+000	-8.40029E-002	0.00000E+000	9	...........	1488.69
	1085	27.15	-8.50654E-002	-6.50089E-007	0.00000E+000	-8.50032E-002	0.00000E+000	9	...........	1488.69
	1086	27.175	-8.60629E-002	-6.61758E-007	0.00000E+000	-8.60034E-002	0.00000E+000	9	...........	1488.69
	1087	27.2	-8.70637E-002	-6.67570E-007	0.00000E+000	-8.70037E-002	0.00000E+000	9	...........	1488.69
	1088	27.225	-8.80634E-002	-6.56347E-007	0.00000E+000	-8.80040E-002	0.00000E+000	9	...........	1488.69
	1089	27.25	-8.90654E-002	-6.64987E-007	0.00000E+000	-8.90042E-002	0.00000E+000	9	...........	1488.69
	1090	27.275	-9.00649E-002	-6.75453E-007	0.00000E+000	-9.00045E-002	0.00000E+000	9	...........	1488.69
	1091	27.3	-9.10657E-002	-6.82713E-007	0.00000E+000	-9.10048E-002	0.00000E+000	9	...........	1488.69
	1092	27.325	-9.20671E-002	-6.84761E-007	0.00000E+000	-9.20050E-002	0.00000E+000	9	...........	1488.69
	1093	27.35	-9.30676E-002	-6.92956E-007	0.00000E+000	-9.30053E-002	0.00000E+000	9	...........	1488.69
	1094	27.375	-9.40659E-002	-6.92533E-007	0.00000E+000	-9.40056E-002	0.00000E+000	9	...........	1488.69
	1095	27.4	-9.50671E-002	-6.99971E-007	0.00000E+000	-9.50058E-002	0.00000E+000	9	...........	1488.69
	1096	27.425	-9.60684E-002	-7.02532E-007	0.00000E+000	-9.60061E-002	0.00000E+000	9	...........	1488.69
	1097	27.45	-9.70706E-002	-7.02309E-007	0.00000E+000	-9.70064E-002	0.00000E+000	9	...........	1488.69
	1098	27.475	-9.80598E-002	-7.05805E-007	0.00000E+000	-9.79941E-002	0.00000E+000	9	...........	1488.69
	1099	27.5	-9.90598E-002	-7.22083E-007	0.00000E+000	-9.89944E-002	0.00000E+000	9	...........	1488.69
	1100	27.525	-1.00057E-001	-7.27495E-007	0.00000E+000	-9.99947E-002	0.00000E+000	9	...........	1488.69
	1101	27.55	-1.01056E-001	-7.23174E-007	0.00000E+000	-1.00995E-001	0.00000E+000	9	...........	1488.69
	1102	27.575	-1.02056E-001	-7.35845E-007	0.00000E+000	-1.01995E-001	0.00000E+000	9	...........	1488.69
	1103	27.6	-1.03057E-001	-7.36602E-007	0.00000E+000	-1.02995E-001	0.00000E+000	9	...........	1488.69
	1104	27.625	-1.04060E-001	-7.46979E-007	0.00000E+000	-1.03996E-001	0.00000E+000	9	...........	1488.69
	1105	27.65	-1.05059E-001	-7.42949E-007	0.00000E+000	-1.04996E-001	0.00000E+000	9	...........	1488.69
	1106	27.675	-1.06059E-001	-7.47158E-007	0.00000E+000	-1.05996E-001	0.00000E+000	9	...........	1488.69
	1107	27.7	-1.07057E-001	-7.48249E-007	0.00000E+000	-1.06997E-001	0.00000E+000	9	...........	1488.69
	1108	27.725	-1.08058E-001	-7.54595E-007	0.00000E+000	-1.07997E-001	0.00000E+000	9	...........	1488.69
	1109	27.75	-1.09059E-001	-7.59316E-007	0.00000E+000	-1.08997E-001	0.00000E+000	9	...........	1488.69
	1110	27.775	-1.10060E-001	-7.60586E-007	0.00000E+000	-1.09997E-001	0.00000E+000	9	...........	1488.69
	1111	27.8	-1.11059E-001	-7.66531E-007	0.00000E+000	-1.10998E-001	0.00000E+000	9	...........	1488.69
	1112	27.825	-1.12062E-001	-7.70473E-007	0.00000E+000	-1.11998E-001	0.00000E+000	9	...........	1488.69
	1113	27.85	-1.13059E-001	-7.67556E-007	0.00000E+000	-1.12998E-001	0.00000E+000	9	...........	1488.69
	1114	27.875	-1.14061E-001	-7.87107E-007	0.00000E+000	-1.13998E-001	0.00000E+000	9	...........	1488.69
	1115	27.9	-1.15062E-001	-7.87664E-007	0.00000E+000	-1.14999E-001	0.00000E+000	9	...........	1488.69
	1116	27.925	-1.16064E-001	-7.91116E-007	0.00000E+000	-1.15999E-001	0.00000E+000	9	...........	1488.69
	1117	27.95	-1.17066E-001	-7.96082E-007	0.00000E+000	-1.16999E-001	0.00000E+000	9	...........	1488.69
	1118	27.975	-1.18066E-001	-8.04455E-007	0.00000E+000	-1.17999E-001	0.00000E+000	9	...........	1488.69
	1119	28	-1.19066E-001	-8.07060E-007	0.00000E+000	-1.19000E-001	0.00000E+000	9	...........	1488.69
	1120	28.025	-1.20064E-001	-8.07951E-007	0.00000E+000	-1.20000E-001	0.00000E+000	9	...........	1488.69
	1121	28.05	-1.21067E-001	-8.15522E-007	0.00000E+000	-1.21000E-001	0.00000E+000	9	...........	1488.69
	1122	28.075	-1.22069E-001	-8.24830E-007	0.00000E+000	-1.22001E-001	0.00000E+000	9	...........	1488.69
	1123	28.1	-1.23067E-001	-8.28237E-007	0.00000E+000	-1.23001E-001	0.00000E+000	9	...........	1488.69
	1124	28.125	-1.24068E-001	-8.35185E-007	0.00000E+000	-1.24001E-001	0.00000E+000	9	...........	1488.69
	1125	28.15	-1.25067E-001	-8.30709E-007	0.00000E+000	-1.25001E-001	0.00000E+000	9	...........	1488.69
	1126	28.175	-1.26067E-001	-8.39973E-007	0.00000E+000	-1.26002E-001	0.00000E+000	9	...........	1488.69
	1127	28.2	-1.27067E-001	-8.42801E-007	0.00000E+000	-1.27002E-001	0.00000E+000	9	...........	1488.69
	1128	28.225	-1.28068E-001	-8.46497E-007	0.00000E+000	-1.28002E-001	0.00000E+000	9	...........	1488.69
	1129	28.25	-1.29071E-001	-8.57498E-007	0.00000E+000	-1.29002E-001	0.00000E+000	9	...........	1488.69
	1130	28.275	-1.30070E-001	-8.58367E-007	0.00000E+000	-1.30003E-001	0.00000E+000	9	...........	1488.69
	1131	28.3	-1.31070E-001	-8.67987E-007	0.00000E+000	-1.31003E-001	0.00000E+000	9	...........	1488.69
	1132	28.325	-1.32070E-001	-8.74266E-007	0.00000E+000	-1.32003E-001	0.00000E+000	9	...........	1488.69
	1133	28.35	-1.33069E-001	-8.71572E-007	0.00000E+000	-1.33004E-001	0.00000E+000	9	...........	1488.69
	1134	28.375	-1.34071E-001	-8.88362E-007	0.00000E+000	-1.34004E-001	0.00000E+000	9	...........	1488.69
	1135	28.4	-1.35072E-001	-8.87872E-007	0.00000E+000	-1.35004E-001	0.00000E+000	9	...........	1488.69
	1136	28.425	-1.36072E-001	-8.90723E-007	0.00000E+000	-1.36004E-001	0.00000E+000	9	...........	1488.69
	1137	28.45	-1.37073E-001	-9.01857E-007	0.00000E+000	-1.37005E-001	0.00000E+000	9	...........	1488.69
	1138	28.475	-1.38073E-001	-9.02993E-007	0.00000E+000	-1.38005E-001	0.00000E+000	9	...........	1488.69
	1139	28.5	-1.39074E-001	-9.08382E-007	0.00000E+000	-1.39005E-001	0.00000E+000	9	...........	1488.69
	1140	28.525	-1.40075E-001	-9.10096E-007	0.00000E+000	-1.40005E-001	0.00000E+000	9	...........	1488.69
	1141	28.55	-1.41073E-001	-9.14550E-007	0.00000E+000	-1.41006E-001	0.00000E+000	9	...........	1488.69
	1142	28.575	-1.42075E-001	-9.16844E-007	0.00000E+000	-1.42006E-001	0.00000E+000	9	...........	1488.69
	1143	28.6	-1.43075E-001	-9.30071E-007	0.00000E+000	-1.43006E-001	0.00000E+000	9	...........	1488.69
	1144	28.625	-1.44062E-001	-9.22077E-007	0.00000E+000	-1.43994E-001	0.00000E+000	9	...........	1488.69
	1145	28.65	-1.45062E-001	-9.36061E-007	0.00000E+000	-1.44994E-001	0.00000E+000	9	...........	1488.69
	1146	28.675	-1.46062E-001	-9.45436E-007	0.00000E+000	-1.45994E-001	0.00000E+000	9	...........	1488.69
	1147	28.7	-1.47064E-001	-9.51070E-007	0.00000E+000	-1.46995E-001	0.00000E+000	9	...........	1488.69
	1148	28.725	-1.48066E-001	-9.60891E-007	0.00000E+000	-1.47995E-001	0.00000E+000	9	...........	1488.69
	1149	28.75	-1.49066E-001	-9.62472E-007	0.00000E+000	-1.48995E-001	0.00000E+000	9	...........	1488.69
	1150	28.775	-1.50067E-001	-9.67839E-007	0.00000E+000	-1.49996E-001	0.00000E+000	9	...........	1488.69
	1151	28.8	-1.51066E-001	-9.77191E-007	0.00000E+000	-1.50996E-001	0.00000E+000	9	...........	1488.69
	1152	28.825	-1.52065E-001	-9.83137E-007	0.00000E+000	-1.51996E-001	0.00000E+000	9	...........	1488.69
	1153	28.85	-1.53066E-001	-9.89394E-007	0.00000E+000	-1.52996E-001	0.00000E+000	9	...........	1488.69
	1154	28.875	-1.54067E-001	-9.90864E-007	0.00000E+000	-1.53997E-001	0.00000E+000	9	...........	1488.69
	1155	28.9	-1.55069E-001	-9.97923E-007	0.00000E+000	-1.54997E-001	0.00000E+000	9	...........	1488.69
	1156	28.925	-1.56068E-001	-1.00912E-006	0.00000E+000	-1.55997E-001	0.00000E+000	9	...........	1488.69
	1157	28.95	-1.57068E-001	-1.01195E-006	0.00000E+000	-1.56997E-001	0.00000E+000	9	...........	1488.69
	1158	28.975	-1.58065E-001	-1.01817E-006	0.00000E+000	-1.57998E-001	0.00000E+000	9	...........	1488.69
	1159	29	-1.59064E-001	-1.03113E-006	0.00000E+000	-1.58998E-001	0.00000E+000	9	...........	1488.69
	1160	29.025	-1.60066E-001	-1.03818E-006	0.00000E+000	-1.59998E-001	0.00000E+000	9	...........	1488.69
	1161	29.05	-1.61067E-001	-1.04491E-006	0.00000E+000	-1.60998E-001	0.00000E+000	9	...........	1488.69
	1162	29.075	-1.62069E-001	-1.05780E-006	0.00000E+000	-1.61999E-001	0.00000E+000	9	...........	1488.69
	1163	29.1	-1.63070E-001	-1.06014E-006	0.00000E+000	-1.62999E-001	0.00000E+000	9	...........	1488.69
	1164	29.125	-1.64068E-001	-1.06992E-006	0.00000E+000	-1.63999E-001	0.00000E+000	9	...........	1488.69
	1165	29.15	-1.65067E-001	-1.07450E-006	0.00000E+000	-1.65000E-001	0.00000E+000	9	...........	1488.69
	1166	29.175	-1.66067E-001	-1.08096E-006	0.00000E+000	-1.66000E-001	0.00000E+000	9	...........	1488.69
	1167	29.2	-1.67070E-001	-1.09764E-006	0.00000E+000	-1.67000E-001	0.00000E+000	9	...........	1488.69
	1168	29.225	-1.68069E-001	-1.10002E-006	0.00000E+000	-1.68000E-001	0.00000E+000	9	...........	1488.69
	1169	29.25	-1.69069E-001	-1.10624E-006	0.00000E+000	-1.69001E-001	0.00000E+000	9	...........	1488.69
	1170	29.275	-1.70070E-001	-1.11797E-006	0.00000E+000	-1.70001E-001	0.00000E+000	9	...........	1488.69
	1171	29.3	-1.71069E-001	-1.12503E-006	0.00000E+000	-1.71001E-001	0.00000E+000	9	...........	1488.69
	1172	29.325	-1.72070E-001	-1.13554E-006	0.00000E+000	-1.72001E-001	0.00000E+000	9	...........	1488.69
	1173	29.35	-1.73072E-001	-1.14877E-006	0.00000E+000	-1.73002E-001	0.00000E+000	9	...........	1488.69
	1174	29.375	-1.74072E-001	-1.15730E-006	0.00000E+000	-1.74002E-001	0.00000E+000	9	...........	1488.69
	1175	29.4	-1.75073E-001	-1.16193E-006	0.00000E+000	-1.75002E-001	0.00000E+000	9	...........	1488.69
	1176	29.425	-1.76074E-001	-1.17930E-006	0.00000E+000	-1.76002E-001	0.00000E+000	9	...........	1488.69
	1177	29.45	-1.77070E-001	-1.18502E-006	0.00000E+000	-1.77003E-001	0.00000E+000	9	...........	1488.69
	1178	29.475	-1.78074E-001	-1.19856E-006	0.00000E+000	-1.78003E-001	0.00000E+000	9	...........	1488.69
	1179	29.5	-1.79075E-001	-1.20727E-006	0.00000E+000	-1.79003E-001	0.00000E+000	9	...........	1488.69
	1180	29.525	-1.80077E-001	-1.21880E-006	0.00000E+000	-1.80004E-001	0.00000E+000	9	...........	1488.69
	1181	29.55	-1.81080E-001	-1.22996E-006	0.00000E+000	-1.81004E-001	0.00000E+000	9	...........	1488.69
	1182	29.575	-1.82077E-001	-1.24116E-006	0.00000E+000	-1.82004E-001	0.00000E+000	9	...........	1488.69
	1183	29.6	-1.83079E-001	-1.25557E-006	0.00000E+000	-1.83004E-001	0.00000E+000	9	...........	1488.69
	1184	29.625	-1.84078E-001	-1.26860E-006	0.00000E+000	-1.84005E-001	0.00000E+000	9	...........	1488.69
	1185	29.65	-1.85080E-001	-1.27842E-006	0.00000E+000	-1.85005E-001	0.00000E+000	9	...........	1488.69
	1186	29.675	-1.86080E-001	-1.29298E-006	0.00000E+000	-1.86005E-001	0.00000E+000	9	...........	1488.69
	1187	29.7	-1.87080E-001	-1.30494E-006	0.00000E+000	-1.87005E-001	0.00000E+000	9	...........	1488.69
	1188	29.725	-1.88081E-001	-1.31968E-006	0.00000E+000	-1.88006E-001	0.00000E+000	9	...........	1488.69
	1189	29.75	-1.89079E-001	-1.32699E-006	0.00000E+000	-1.89006E-001	0.00000E+000	9	...........	1488.69
	1190	29.775	-1.90077E-001	-1.35012E-006	0.00000E+000	-1.90006E-001	0.00000E+000	9	...........	1488.69
	1191	29.8	-1.91067E-001	-1.35489E-006	0.00000E+000	-1.90994E-001	0.00000E+000	9	...........	1488.69
	1192	29.825	-1.92067E-001	-1.37317E-006	0.00000E+000	-1.91994E-001	0.00000E+000	9	...........	1488.69
	1193	29.85	-1.93069E-001	-1.39308E-006	0.00000E+000	-1.92995E-001	0.00000E+000	9	...........	1488.69
	1194	29.875	-1.94070E-001	-1.40938E-006	0.00000E+000	-1.93995E-001	0.00000E+000	9	...........	1488.69
	1195	29.9	-1.95070E-001	-1.42973E-006	0.00000E+000	-1.94995E-001	0.00000E+000	9	...........	1488.69
	1196	29.925	-1.96072E-001	-1.44623E-006	0.00000E+000	-1.95995E-001	0.00000E+000	9	...........	1488.69
	1197	29.95	-1.97070E-001	-1.46060E-006	0.00000E+000	-1.96996E-001	0.00000E+000	9	...........	1488.69
	1198	29.975	-1.98073E-001	-1.47663E-006	0.00000E+000	-1.97996E-001	0.00000E+000	9	...........	1488.69
	1199	30	-1.99073E-001	-1.49814E-006	0.00000E+000	-1.98996E-001	0.00000E+000	9	...........	1488.69
	1200	30.025	-2.00072E-001	-1.52030E-006	0.00000E+000	-1.99996E-001	0.00000E+000	9	...........	1488.69
CURVE4	TABLE
	Pt	T	Vf	Im	Vu	Sig	Ach	IERange	Over	Temp
	#	s	V vs. Ref.	A	V	V	V	#	bits	deg C
	1201	30.05	-2.00081E-001	-3.60955E-007	0.00000E+000	-1.99996E-001	0.00000E+000	9	...........	1488.69