File: input/CV_ECSA_#1_#9.DTA
EXPLAIN
TAG	CV
TITLE	LABEL	ECSA	Test Identifier
DATE	LABEL	20.8.2024	Date
TIME	LABEL	8:39:39	Time
NOTES	NOTES	1	Notes...

PSTAT	PSTAT	IFC1010-36105	Potentiostat
VINIT	POTEN	-2.00000E-001	F	A Potential (V)
VLIMIT1	POTEN	0.00000E+000	F	A Potential (V)
VLIMIT2	POTEN	-2.00000E-001	F	A Potential (V)
VFINAL	POTEN	-2.00000E-001	F	A Potential (V)
SCANRATE	QUANT	8.99998E+001	A Real Number
STEPSIZE	QUANT	1.00000E+000	Step Size (mV)
CYCLES	IQUANT	3	Cycles (#)
IMODE	SELECTOR	1	I/E Range Mode
IRANGE	QUANT	3.00000E-001	Max Current (mA)
AREA	QUANT	1.00000E+000	Sample Area (cm^2)
EQDELAY	QUANT	0.00000E+000	Equil. Time (s)
IRCOMP	SELECTOR	0	IRComp
PFCOR	QUANT	5.00000E+001	PF Corr. (ohm)
SAMPLINGMODE	SELECTOR	2	Sampling Mode
EOC	QUANT	-0.1790659	Open Circuit (V)
ELECTRODETYPE	SELECTOR	0	Electrode Type
STRIPPING	TOGGLE	F	Used for Stripping
SEQUENCER	TOGGLE	TRUE	Run as Sequence
PSTATMODEL	IQUANT	64	Pstat Model
PSTATSECTION	LABEL	IFC1010-36105	Pstat Section
PSTATSERIALNO	LABEL	36105	Pstat Serial Number
CTRLMODE	IQUANT	1	Control Mode
ELECTROMETER	IQUANT	0	RE=0 or CS=1
IESTAB	IQUANT	2	I/E Stability
CASPEED	IQUANT	4	Control Amp Speed
CONVENTION	IQUANT	1	Current Convention
ICHRANGE	IQUANT	2	Ich Range
ICHRANGEMODE	TOGGLE	F	Ich Auto Range
ICHOFFSETENABLE	TOGGLE	F	Ich Offset Enable
ICHOFFSET	QUANT	0	Ich Offset (V)
ICHFILTER	IQUANT	3	Ich Filter
VCHRANGE	IQUANT	1	Vch Range
VCHRANGEMODE	TOGGLE	F	Vch Auto Range
VCHOFFSETENABLE	TOGGLE	F	Vch Offset Enable
VCHOFFSET	QUANT	0	Vch Offset (V)
VCHFILTER	IQUANT	3	Vch Filter
IERANGELOWERLIMIT	IQUANT	4	I/E Range Lower Limit
IERANGEMODE	TOGGLE	F	I/E AutoRange
IERANGE	IQUANT	9	I/E Range
ACHSELECT	IQUANT	0	Ach Select
ACHRANGE	IQUANT	2	Ach Range
ACHOFFSETENABLE	TOGGLE	F	Ach Offset Enable
ACHOFFSET	QUANT	0	Ach Offset (V)
ACHFILTER	IQUANT	1	Ach Filter
SENSECABLEID	IQUANT	13	Sense Cable ID
PWRCABLEID	IQUANT	13	Power Cable ID
DCCALDATE	LABEL	10/17/2023	DC Calibration Date
ACCALDATE	LABEL	6/2/2023	AC Calibration Date
FRAMEWORKVERSION	LABEL	7.10.3	Framework Version
INSTRUMENTVERSION	LABEL	4.91	Instrument Version
COMMVERSION	LABEL	3.10	Communications Version
CPUPLDVERSION	LABEL	2.22	CPU PLD Version
CTRLPLDVERSION	LABEL	0.00	CTRL PLD Version
PSTATPLDVERSION	LABEL	0.00	PSTAT PLD Version
CURVE1	TABLE
	Pt	T	Vf	Im	Vu	Sig	Ach	IERange	Over	Temp
	#	s	V vs. Ref.	A	V	V	V	#	bits	deg C
	0	0.011117	-2.00080E-001	-4.14628E-007	0.00000E+000	-1.99996E-001	0.00000E+000	9	...........	1488.69
	1	0.022233	-1.99101E-001	2.09933E-006	0.00000E+000	-1.98996E-001	0.00000E+000	9	...........	1488.69
	2	0.03335	-1.98100E-001	2.23301E-006	0.00000E+000	-1.97996E-001	0.00000E+000	9	...........	1488.69
	3	0.044467	-1.97099E-001	2.32551E-006	0.00000E+000	-1.96996E-001	0.00000E+000	9	...........	1488.69
	4	0.055583	-1.96099E-001	2.39052E-006	0.00000E+000	-1.95995E-001	0.00000E+000	9	...........	1488.69
	5	0.0667	-1.95099E-001	2.44164E-006	0.00000E+000	-1.94995E-001	0.00000E+000	9	...........	1488.69
	6	0.077817	-1.94098E-001	2.50469E-006	0.00000E+000	-1.93995E-001	0.00000E+000	9	...........	1488.69
	7	0.088933	-1.93098E-001	2.51698E-006	0.00000E+000	-1.92995E-001	0.00000E+000	9	...........	1488.69
	8	0.10005	-1.92095E-001	2.56514E-006	0.00000E+000	-1.91994E-001	0.00000E+000	9	...........	1488.69
	9	0.111167	-1.91094E-001	2.58205E-006	0.00000E+000	-1.90994E-001	0.00000E+000	9	...........	1488.69
	10	0.122283	-1.90093E-001	2.61831E-006	0.00000E+000	-1.89994E-001	0.00000E+000	9	...........	1488.69
	11	0.1334	-1.89094E-001	2.63146E-006	0.00000E+000	-1.88993E-001	0.00000E+000	9	...........	1488.69
	12	0.144517	-1.88094E-001	2.64806E-006	0.00000E+000	-1.87993E-001	0.00000E+000	9	...........	1488.69
	13	0.155633	-1.87093E-001	2.66948E-006	0.00000E+000	-1.86993E-001	0.00000E+000	9	...........	1488.69
	14	0.16675	-1.86092E-001	2.68373E-006	0.00000E+000	-1.85993E-001	0.00000E+000	9	...........	1488.69
	15	0.177867	-1.85093E-001	2.71889E-006	0.00000E+000	-1.84992E-001	0.00000E+000	9	...........	1488.69
	16	0.188983	-1.84092E-001	2.71754E-006	0.00000E+000	-1.83992E-001	0.00000E+000	9	...........	1488.69
	17	0.2001	-1.83092E-001	2.73474E-006	0.00000E+000	-1.82992E-001	0.00000E+000	9	...........	1488.69
	18	0.211217	-1.82090E-001	2.73504E-006	0.00000E+000	-1.81992E-001	0.00000E+000	9	...........	1488.69
	19	0.222333	-1.81092E-001	2.76564E-006	0.00000E+000	-1.80991E-001	0.00000E+000	9	...........	1488.69
	20	0.23345	-1.80089E-001	2.76228E-006	0.00000E+000	-1.79991E-001	0.00000E+000	9	...........	1488.69
	21	0.244567	-1.79090E-001	2.77878E-006	0.00000E+000	-1.78991E-001	0.00000E+000	9	...........	1488.69
	22	0.255683	-1.78090E-001	2.78766E-006	0.00000E+000	-1.77991E-001	0.00000E+000	9	...........	1488.69
	23	0.2668	-1.77088E-001	2.78591E-006	0.00000E+000	-1.76990E-001	0.00000E+000	9	...........	1488.69
	24	0.277917	-1.76090E-001	2.81019E-006	0.00000E+000	-1.75990E-001	0.00000E+000	9	...........	1488.69
	25	0.289033	-1.75089E-001	2.80577E-006	0.00000E+000	-1.74990E-001	0.00000E+000	9	...........	1488.69
	26	0.30015	-1.74088E-001	2.82022E-006	0.00000E+000	-1.73989E-001	0.00000E+000	9	...........	1488.69
	27	0.311267	-1.73088E-001	2.82238E-006	0.00000E+000	-1.72989E-001	0.00000E+000	9	...........	1488.69
	28	0.322383	-1.72088E-001	2.83105E-006	0.00000E+000	-1.71989E-001	0.00000E+000	9	...........	1488.69
	29	0.3335	-1.71087E-001	2.84665E-006	0.00000E+000	-1.70989E-001	0.00000E+000	9	...........	1488.69
	30	0.344617	-1.70087E-001	2.84304E-006	0.00000E+000	-1.69988E-001	0.00000E+000	9	...........	1488.69
	31	0.355733	-1.69085E-001	2.85257E-006	0.00000E+000	-1.68988E-001	0.00000E+000	9	...........	1488.69
	32	0.36685	-1.68084E-001	2.83296E-006	0.00000E+000	-1.67988E-001	0.00000E+000	9	...........	1488.69
	33	0.377967	-1.67084E-001	2.86351E-006	0.00000E+000	-1.66988E-001	0.00000E+000	9	...........	1488.69
	34	0.389083	-1.66083E-001	2.85814E-006	0.00000E+000	-1.65987E-001	0.00000E+000	9	...........	1488.69
	35	0.4002	-1.65084E-001	2.88091E-006	0.00000E+000	-1.64987E-001	0.00000E+000	9	...........	1488.69
	36	0.411317	-1.64085E-001	2.86261E-006	0.00000E+000	-1.63987E-001	0.00000E+000	9	...........	1488.69
	37	0.422433	-1.63085E-001	2.87520E-006	0.00000E+000	-1.62987E-001	0.00000E+000	9	...........	1488.69
	38	0.43355	-1.62083E-001	2.87184E-006	0.00000E+000	-1.61986E-001	0.00000E+000	9	...........	1488.69
	39	0.444667	-1.61083E-001	2.88262E-006	0.00000E+000	-1.60986E-001	0.00000E+000	9	...........	1488.69
	40	0.455783	-1.60083E-001	2.88568E-006	0.00000E+000	-1.59986E-001	0.00000E+000	9	...........	1488.69
	41	0.4669	-1.59081E-001	2.88157E-006	0.00000E+000	-1.58985E-001	0.00000E+000	9	...........	1488.69
	42	0.478017	-1.58080E-001	2.89100E-006	0.00000E+000	-1.57985E-001	0.00000E+000	9	...........	1488.69
	43	0.489133	-1.57071E-001	2.90259E-006	0.00000E+000	-1.56972E-001	0.00000E+000	9	...........	1488.69
	44	0.50025	-1.56070E-001	2.89325E-006	0.00000E+000	-1.55972E-001	0.00000E+000	9	...........	1488.69
	45	0.511367	-1.55068E-001	2.90218E-006	0.00000E+000	-1.54972E-001	0.00000E+000	9	...........	1488.69
	46	0.522483	-1.54066E-001	2.89386E-006	0.00000E+000	-1.53972E-001	0.00000E+000	9	...........	1488.69
	47	0.5336	-1.53066E-001	2.89737E-006	0.00000E+000	-1.52971E-001	0.00000E+000	9	...........	1488.69
	48	0.544717	-1.52066E-001	2.90956E-006	0.00000E+000	-1.51971E-001	0.00000E+000	9	...........	1488.69
	49	0.555833	-1.51069E-001	2.89295E-006	0.00000E+000	-1.50971E-001	0.00000E+000	9	...........	1488.69
	50	0.56695	-1.50069E-001	2.89616E-006	0.00000E+000	-1.49971E-001	0.00000E+000	9	...........	1488.69
	51	0.578067	-1.49068E-001	2.90911E-006	0.00000E+000	-1.48970E-001	0.00000E+000	9	...........	1488.69
	52	0.589183	-1.48069E-001	2.90605E-006	0.00000E+000	-1.47970E-001	0.00000E+000	9	...........	1488.69
	53	0.6003	-1.47069E-001	2.91563E-006	0.00000E+000	-1.46970E-001	0.00000E+000	9	...........	1488.69
	54	0.611417	-1.46067E-001	2.90916E-006	0.00000E+000	-1.45969E-001	0.00000E+000	9	...........	1488.69
	55	0.622533	-1.45063E-001	2.91001E-006	0.00000E+000	-1.44969E-001	0.00000E+000	9	...........	1488.69
	56	0.63365	-1.44066E-001	2.90580E-006	0.00000E+000	-1.43969E-001	0.00000E+000	9	...........	1488.69
	57	0.644767	-1.43066E-001	2.90610E-006	0.00000E+000	-1.42969E-001	0.00000E+000	9	...........	1488.69
	58	0.655883	-1.42066E-001	2.91136E-006	0.00000E+000	-1.41968E-001	0.00000E+000	9	...........	1488.69
	59	0.667	-1.41065E-001	2.90981E-006	0.00000E+000	-1.40968E-001	0.00000E+000	9	...........	1488.69
	60	0.678117	-1.40064E-001	2.92411E-006	0.00000E+000	-1.39968E-001	0.00000E+000	9	...........	1488.69
	61	0.689233	-1.39064E-001	2.92084E-006	0.00000E+000	-1.38968E-001	0.00000E+000	9	...........	1488.69
	62	0.70035	-1.38063E-001	2.91161E-006	0.00000E+000	-1.37967E-001	0.00000E+000	9	...........	1488.69
	63	0.711467	-1.37063E-001	2.91799E-006	0.00000E+000	-1.36967E-001	0.00000E+000	9	...........	1488.69
	64	0.722583	-1.36060E-001	2.92130E-006	0.00000E+000	-1.35967E-001	0.00000E+000	9	...........	1488.69
	65	0.7337	-1.35061E-001	2.91412E-006	0.00000E+000	-1.34967E-001	0.00000E+000	9	...........	1488.69
	66	0.744817	-1.34062E-001	2.91894E-006	0.00000E+000	-1.33966E-001	0.00000E+000	9	...........	1488.69
	67	0.755933	-1.33060E-001	2.91332E-006	0.00000E+000	-1.32966E-001	0.00000E+000	9	...........	1488.69
	68	0.76705	-1.32060E-001	2.90394E-006	0.00000E+000	-1.31966E-001	0.00000E+000	9	...........	1488.69
	69	0.778167	-1.31062E-001	2.91819E-006	0.00000E+000	-1.30965E-001	0.00000E+000	9	...........	1488.69
	70	0.789283	-1.30061E-001	2.90976E-006	0.00000E+000	-1.29965E-001	0.00000E+000	9	...........	1488.69
	71	0.8004	-1.29061E-001	2.92084E-006	0.00000E+000	-1.28965E-001	0.00000E+000	9	...........	1488.69
	72	0.811517	-1.28056E-001	2.92019E-006	0.00000E+000	-1.27965E-001	0.00000E+000	9	...........	1488.69
	73	0.822633	-1.27057E-001	2.93123E-006	0.00000E+000	-1.26964E-001	0.00000E+000	9	...........	1488.69
	74	0.83375	-1.26057E-001	2.90780E-006	0.00000E+000	-1.25964E-001	0.00000E+000	9	...........	1488.69
	75	0.844867	-1.25056E-001	2.91603E-006	0.00000E+000	-1.24964E-001	0.00000E+000	9	...........	1488.69
	76	0.855983	-1.24056E-001	2.92686E-006	0.00000E+000	-1.23964E-001	0.00000E+000	9	...........	1488.69
	77	0.8671	-1.23056E-001	2.90941E-006	0.00000E+000	-1.22963E-001	0.00000E+000	9	...........	1488.69
	78	0.878217	-1.22055E-001	2.92325E-006	0.00000E+000	-1.21963E-001	0.00000E+000	9	...........	1488.69
	79	0.889333	-1.21056E-001	2.92265E-006	0.00000E+000	-1.20963E-001	0.00000E+000	9	...........	1488.69
	80	0.90045	-1.20054E-001	2.92285E-006	0.00000E+000	-1.19963E-001	0.00000E+000	9	...........	1488.69
	81	0.911567	-1.19054E-001	2.90866E-006	0.00000E+000	-1.18962E-001	0.00000E+000	9	...........	1488.69
	82	0.922683	-1.18054E-001	2.92862E-006	0.00000E+000	-1.17962E-001	0.00000E+000	9	...........	1488.69
	83	0.9338	-1.17054E-001	2.92411E-006	0.00000E+000	-1.16962E-001	0.00000E+000	9	...........	1488.69
	84	0.944917	-1.16053E-001	2.92175E-006	0.00000E+000	-1.15961E-001	0.00000E+000	9	...........	1488.69
	85	0.95603	-1.15052E-001	2.93093E-006	0.00000E+000	-1.14961E-001	0.00000E+000	9	...........	1488.69
	86	0.96715	-1.14050E-001	2.93002E-006	0.00000E+000	-1.13961E-001	0.00000E+000	9	...........	1488.69
	87	0.97827	-1.13048E-001	2.92967E-006	0.00000E+000	-1.12961E-001	0.00000E+000	9	...........	1488.69
	88	0.98938	-1.12050E-001	2.92426E-006	0.00000E+000	-1.11960E-001	0.00000E+000	9	...........	1488.69
	89	1.0005	-1.11049E-001	2.92666E-006	0.00000E+000	-1.10960E-001	0.00000E+000	9	...........	1488.69
	90	1.01162	-1.10049E-001	2.92290E-006	0.00000E+000	-1.09960E-001	0.00000E+000	9	...........	1488.69
	91	1.02273	-1.09048E-001	2.93730E-006	0.00000E+000	-1.08960E-001	0.00000E+000	9	...........	1488.69
	92	1.03385	-1.08046E-001	2.92732E-006	0.00000E+000	-1.07959E-001	0.00000E+000	9	...........	1488.69
	93	1.04497	-1.07047E-001	2.93419E-006	0.00000E+000	-1.06959E-001	0.00000E+000	9	...........	1488.69
	94	1.05608	-1.06048E-001	2.93344E-006	0.00000E+000	-1.05959E-001	0.00000E+000	9	...........	1488.69
	95	1.0672	-1.05048E-001	2.92676E-006	0.00000E+000	-1.04958E-001	0.00000E+000	9	...........	1488.69
	96	1.07832	-1.04047E-001	2.93464E-006	0.00000E+000	-1.03958E-001	0.00000E+000	9	...........	1488.69
	97	1.08943	-1.03037E-001	2.95802E-006	0.00000E+000	-1.02945E-001	0.00000E+000	9	...........	1488.69
	98	1.10055	-1.02033E-001	2.93002E-006	0.00000E+000	-1.01945E-001	0.00000E+000	9	...........	1488.69
	99	1.11167	-1.01033E-001	2.93389E-006	0.00000E+000	-1.00945E-001	0.00000E+000	9	...........	1488.69
	100	1.12278	-1.00034E-001	2.94813E-006	0.00000E+000	-9.99447E-002	0.00000E+000	9	...........	1488.69
	101	1.1339	-9.90346E-002	2.92722E-006	0.00000E+000	-9.89444E-002	0.00000E+000	9	...........	1488.69
	102	1.14502	-9.80345E-002	2.93088E-006	0.00000E+000	-9.79441E-002	0.00000E+000	9	...........	1488.69
	103	1.15613	-9.70354E-002	2.94367E-006	0.00000E+000	-9.69439E-002	0.00000E+000	9	...........	1488.69
	104	1.16725	-9.60307E-002	2.93574E-006	0.00000E+000	-9.59436E-002	0.00000E+000	9	...........	1488.69
	105	1.17837	-9.50308E-002	2.93604E-006	0.00000E+000	-9.49433E-002	0.00000E+000	9	...........	1488.69
	106	1.18948	-9.40321E-002	2.93655E-006	0.00000E+000	-9.39431E-002	0.00000E+000	9	...........	1488.69
	107	1.2006	-9.30324E-002	2.94292E-006	0.00000E+000	-9.29428E-002	0.00000E+000	9	...........	1488.69
	108	1.21172	-9.20315E-002	2.94106E-006	0.00000E+000	-9.19425E-002	0.00000E+000	9	...........	1488.69
	109	1.22283	-9.10326E-002	2.94432E-006	0.00000E+000	-9.09423E-002	0.00000E+000	9	...........	1488.69
	110	1.23395	-9.00297E-002	2.94151E-006	0.00000E+000	-8.99420E-002	0.00000E+000	9	...........	1488.69
	111	1.24507	-8.90310E-002	2.94021E-006	0.00000E+000	-8.89417E-002	0.00000E+000	9	...........	1488.69
	112	1.25618	-8.80278E-002	2.95004E-006	0.00000E+000	-8.79415E-002	0.00000E+000	9	...........	1488.69
	113	1.2673	-8.70287E-002	2.94051E-006	0.00000E+000	-8.69412E-002	0.00000E+000	9	...........	1488.69
	114	1.27842	-8.60274E-002	2.94537E-006	0.00000E+000	-8.59409E-002	0.00000E+000	9	...........	1488.69
	115	1.28953	-8.50304E-002	2.95501E-006	0.00000E+000	-8.49406E-002	0.00000E+000	9	...........	1488.69
	116	1.30065	-8.40267E-002	2.94563E-006	0.00000E+000	-8.39404E-002	0.00000E+000	9	...........	1488.69
	117	1.31177	-8.30272E-002	2.95872E-006	0.00000E+000	-8.29401E-002	0.00000E+000	9	...........	1488.69
	118	1.32288	-8.20269E-002	2.95240E-006	0.00000E+000	-8.19398E-002	0.00000E+000	9	...........	1488.69
	119	1.334	-8.10293E-002	2.96188E-006	0.00000E+000	-8.09396E-002	0.00000E+000	9	...........	1488.69
	120	1.34512	-8.00301E-002	2.93845E-006	0.00000E+000	-7.99393E-002	0.00000E+000	9	...........	1488.69
	121	1.35623	-7.90286E-002	2.96740E-006	0.00000E+000	-7.89390E-002	0.00000E+000	9	...........	1488.69
	122	1.36735	-7.80291E-002	2.96002E-006	0.00000E+000	-7.79388E-002	0.00000E+000	9	...........	1488.69
	123	1.37847	-7.70259E-002	2.96810E-006	0.00000E+000	-7.69385E-002	0.00000E+000	9	...........	1488.69
	124	1.38958	-7.60281E-002	2.96795E-006	0.00000E+000	-7.59382E-002	0.00000E+000	9	...........	1488.69
	125	1.4007	-7.50257E-002	2.96955E-006	0.00000E+000	-7.49380E-002	0.00000E+000	9	...........	1488.69
	126	1.41182	-7.40259E-002	2.95270E-006	0.00000E+000	-7.39377E-002	0.00000E+000	9	...........	1488.69
	127	1.42293	-7.30243E-002	2.97106E-006	0.00000E+000	-7.29374E-002	0.00000E+000	9	...........	1488.69
	128	1.43405	-7.20252E-002	2.97567E-006	0.00000E+000	-7.19372E-002	0.00000E+000	9	...........	1488.69
	129	1.44517	-7.10257E-002	2.96343E-006	0.00000E+000	-7.09369E-002	0.00000E+000	9	...........	1488.69
	130	1.45628	-7.00247E-002	2.98049E-006	0.00000E+000	-6.99366E-002	0.00000E+000	9	...........	1488.69
	131	1.4674	-6.90212E-002	2.97482E-006	0.00000E+000	-6.89364E-002	0.00000E+000	9	...........	1488.69
	132	1.47852	-6.80208E-002	2.97592E-006	0.00000E+000	-6.79361E-002	0.00000E+000	9	...........	1488.69
	133	1.48963	-6.70228E-002	2.97627E-006	0.00000E+000	-6.69358E-002	0.00000E+000	9	...........	1488.69
	134	1.50075	-6.60217E-002	2.97979E-006	0.00000E+000	-6.59356E-002	0.00000E+000	9	...........	1488.69
	135	1.51187	-6.50205E-002	2.98209E-006	0.00000E+000	-6.49353E-002	0.00000E+000	9	...........	1488.69
	136	1.52298	-6.40181E-002	2.99589E-006	0.00000E+000	-6.39350E-002	0.00000E+000	9	...........	1488.69
	137	1.5341	-6.30163E-002	2.99062E-006	0.00000E+000	-6.29348E-002	0.00000E+000	9	...........	1488.69
	138	1.54522	-6.20172E-002	2.98696E-006	0.00000E+000	-6.19345E-002	0.00000E+000	9	...........	1488.69
	139	1.55633	-6.10174E-002	2.99463E-006	0.00000E+000	-6.09342E-002	0.00000E+000	9	...........	1488.69
	140	1.56745	-6.00179E-002	2.99634E-006	0.00000E+000	-5.99340E-002	0.00000E+000	9	...........	1488.69
	141	1.57857	-5.90158E-002	2.99890E-006	0.00000E+000	-5.89337E-002	0.00000E+000	9	...........	1488.69
	142	1.58968	-5.80167E-002	2.99805E-006	0.00000E+000	-5.79334E-002	0.00000E+000	9	...........	1488.69
	143	1.6008	-5.70169E-002	3.01620E-006	0.00000E+000	-5.69332E-002	0.00000E+000	9	...........	1488.69
	144	1.61192	-5.60134E-002	3.00452E-006	0.00000E+000	-5.59329E-002	0.00000E+000	9	...........	1488.69
	145	1.62303	-5.50142E-002	3.01691E-006	0.00000E+000	-5.49326E-002	0.00000E+000	9	...........	1488.69
	146	1.63415	-5.40158E-002	3.01671E-006	0.00000E+000	-5.39324E-002	0.00000E+000	9	...........	1488.69
	147	1.64527	-5.30162E-002	3.01811E-006	0.00000E+000	-5.29321E-002	0.00000E+000	9	...........	1488.69
	148	1.65638	-5.20150E-002	3.02293E-006	0.00000E+000	-5.19318E-002	0.00000E+000	9	...........	1488.69
	149	1.6675	-5.10118E-002	3.02804E-006	0.00000E+000	-5.09316E-002	0.00000E+000	9	...........	1488.69
	150	1.67862	-5.00105E-002	3.03216E-006	0.00000E+000	-4.99313E-002	0.00000E+000	9	...........	1488.69
	151	1.68973	-4.89976E-002	3.05037E-006	0.00000E+000	-4.89185E-002	0.00000E+000	9	...........	1488.69
	152	1.70085	-4.80010E-002	3.03898E-006	0.00000E+000	-4.79183E-002	0.00000E+000	9	...........	1488.69
	153	1.71197	-4.69990E-002	3.04118E-006	0.00000E+000	-4.69180E-002	0.00000E+000	9	...........	1488.69
	154	1.72308	-4.59977E-002	3.05026E-006	0.00000E+000	-4.59177E-002	0.00000E+000	9	...........	1488.69
	155	1.7342	-4.49960E-002	3.04756E-006	0.00000E+000	-4.49174E-002	0.00000E+000	9	...........	1488.69
	156	1.74532	-4.39963E-002	3.05252E-006	0.00000E+000	-4.39172E-002	0.00000E+000	9	...........	1488.69
	157	1.75643	-4.29948E-002	3.06210E-006	0.00000E+000	-4.29169E-002	0.00000E+000	9	...........	1488.69
	158	1.76755	-4.19945E-002	3.04856E-006	0.00000E+000	-4.19166E-002	0.00000E+000	9	...........	1488.69
	159	1.77867	-4.09928E-002	3.06617E-006	0.00000E+000	-4.09164E-002	0.00000E+000	9	...........	1488.69
	160	1.78978	-3.99966E-002	3.06687E-006	0.00000E+000	-3.99161E-002	0.00000E+000	9	...........	1488.69
	161	1.8009	-3.89936E-002	3.07389E-006	0.00000E+000	-3.89158E-002	0.00000E+000	9	...........	1488.69
	162	1.81202	-3.79919E-002	3.07209E-006	0.00000E+000	-3.79156E-002	0.00000E+000	9	...........	1488.69
	163	1.82313	-3.69923E-002	3.08147E-006	0.00000E+000	-3.69153E-002	0.00000E+000	9	...........	1488.69
	164	1.83425	-3.59919E-002	3.09887E-006	0.00000E+000	-3.59150E-002	0.00000E+000	9	...........	1488.69
	165	1.84537	-3.49927E-002	3.08433E-006	0.00000E+000	-3.49148E-002	0.00000E+000	9	...........	1488.69
	166	1.85648	-3.39927E-002	3.09591E-006	0.00000E+000	-3.39145E-002	0.00000E+000	9	...........	1488.69
	167	1.8676	-3.29901E-002	3.09356E-006	0.00000E+000	-3.29142E-002	0.00000E+000	9	...........	1488.69
	168	1.87872	-3.19908E-002	3.11091E-006	0.00000E+000	-3.19140E-002	0.00000E+000	9	...........	1488.69
	169	1.88983	-3.09886E-002	3.09907E-006	0.00000E+000	-3.09137E-002	0.00000E+000	9	...........	1488.69
	170	1.90095	-2.99869E-002	3.12566E-006	0.00000E+000	-2.99134E-002	0.00000E+000	9	...........	1488.69
	171	1.91207	-2.89869E-002	3.10394E-006	0.00000E+000	-2.89132E-002	0.00000E+000	9	...........	1488.69
	172	1.92318	-2.79861E-002	3.11939E-006	0.00000E+000	-2.79129E-002	0.00000E+000	9	...........	1488.69
	173	1.9343	-2.69867E-002	3.13700E-006	0.00000E+000	-2.69126E-002	0.00000E+000	9	...........	1488.69
	174	1.94542	-2.59853E-002	3.12566E-006	0.00000E+000	-2.59124E-002	0.00000E+000	9	...........	1488.69
	175	1.95653	-2.49853E-002	3.13895E-006	0.00000E+000	-2.49121E-002	0.00000E+000	9	...........	1488.69
	176	1.96765	-2.39826E-002	3.14056E-006	0.00000E+000	-2.39118E-002	0.00000E+000	9	...........	1488.69
	177	1.97877	-2.29814E-002	3.14337E-006	0.00000E+000	-2.29116E-002	0.00000E+000	9	...........	1488.69
	178	1.98988	-2.19822E-002	3.16559E-006	0.00000E+000	-2.19113E-002	0.00000E+000	9	...........	1488.69
	179	2.001	-2.09825E-002	3.16303E-006	0.00000E+000	-2.09110E-002	0.00000E+000	9	...........	1488.69
	180	2.01212	-1.99781E-002	3.16037E-006	0.00000E+000	-1.99108E-002	0.00000E+000	9	...........	1488.69
	181	2.02323	-1.89795E-002	3.16082E-006	0.00000E+000	-1.89105E-002	0.00000E+000	9	...........	1488.69
	182	2.03435	-1.79787E-002	3.17688E-006	0.00000E+000	-1.79102E-002	0.00000E+000	9	...........	1488.69
	183	2.04547	-1.69800E-002	3.18164E-006	0.00000E+000	-1.69100E-002	0.00000E+000	9	...........	1488.69
	184	2.05658	-1.59801E-002	3.19443E-006	0.00000E+000	-1.59097E-002	0.00000E+000	9	...........	1488.69
	185	2.0677	-1.49801E-002	3.19468E-006	0.00000E+000	-1.49094E-002	0.00000E+000	9	...........	1488.69
	186	2.07882	-1.39785E-002	3.19945E-006	0.00000E+000	-1.39092E-002	0.00000E+000	9	...........	1488.69
	187	2.08993	-1.29766E-002	3.22398E-006	0.00000E+000	-1.29089E-002	0.00000E+000	9	...........	1488.69
	188	2.10105	-1.19762E-002	3.22142E-006	0.00000E+000	-1.19086E-002	0.00000E+000	9	...........	1488.69
	189	2.11217	-1.09739E-002	3.22563E-006	0.00000E+000	-1.09084E-002	0.00000E+000	9	...........	1488.69
	190	2.12328	-9.97436E-003	3.22318E-006	0.00000E+000	-9.90810E-003	0.00000E+000	9	...........	1488.69
	191	2.1344	-8.97433E-003	3.23832E-006	0.00000E+000	-8.90782E-003	0.00000E+000	9	...........	1488.69
	192	2.14552	-7.97467E-003	3.23476E-006	0.00000E+000	-7.90756E-003	0.00000E+000	9	...........	1488.69
	193	2.15663	-6.97413E-003	3.25824E-006	0.00000E+000	-6.90729E-003	0.00000E+000	9	...........	1488.69
	194	2.16775	-5.97273E-003	3.25132E-006	0.00000E+000	-5.90702E-003	0.00000E+000	9	...........	1488.69
	195	2.17887	-4.96895E-003	3.26506E-006	0.00000E+000	-4.90676E-003	0.00000E+000	9	...........	1488.69
	196	2.18998	-3.97063E-003	3.26832E-006	0.00000E+000	-3.90649E-003	0.00000E+000	9	...........	1488.69
	197	2.2011	-2.97322E-003	3.27399E-006	0.00000E+000	-2.90622E-003	0.00000E+000	9	...........	1488.69
	198	2.21222	-1.97248E-003	3.28663E-006	0.00000E+000	-1.90596E-003	0.00000E+000	9	...........	1488.69
	199	2.22333	-9.72126E-004	3.28367E-006	0.00000E+000	-9.05685E-004	0.00000E+000	9	...........	1488.69
	200	2.23445	2.93164E-005	3.31262E-006	0.00000E+000	9.45777E-005	0.00000E+000	9	...........	1488.69
	201	2.24557	-9.32740E-004	-5.77004E-007	0.00000E+000	-9.05685E-004	0.00000E+000	9	...........	1488.69
	202	2.25668	-1.93323E-003	-7.41789E-007	0.00000E+000	-1.90596E-003	0.00000E+000	9	...........	1488.69
	203	2.2678	-2.93370E-003	-8.52197E-007	0.00000E+000	-2.90622E-003	0.00000E+000	9	...........	1488.69
	204	2.27892	-3.93225E-003	-9.12342E-007	0.00000E+000	-3.90649E-003	0.00000E+000	9	...........	1488.69
	205	2.29003	-4.93092E-003	-9.84727E-007	0.00000E+000	-4.90676E-003	0.00000E+000	9	...........	1488.69
	206	2.30115	-5.93274E-003	-1.02937E-006	0.00000E+000	-5.90702E-003	0.00000E+000	9	...........	1488.69
	207	2.31227	-6.93408E-003	-1.06780E-006	0.00000E+000	-6.90729E-003	0.00000E+000	9	...........	1488.69
	208	2.32338	-7.93450E-003	-1.11184E-006	0.00000E+000	-7.90756E-003	0.00000E+000	9	...........	1488.69
	209	2.3345	-8.93446E-003	-1.12458E-006	0.00000E+000	-8.90782E-003	0.00000E+000	9	...........	1488.69
	210	2.34562	-9.93356E-003	-1.15969E-006	0.00000E+000	-9.90810E-003	0.00000E+000	9	...........	1488.69
	211	2.35673	-1.09354E-002	-1.18723E-006	0.00000E+000	-1.09084E-002	0.00000E+000	9	...........	1488.69
	212	2.36785	-1.19358E-002	-1.22039E-006	0.00000E+000	-1.19086E-002	0.00000E+000	9	...........	1488.69
	213	2.37897	-1.29354E-002	-1.23459E-006	0.00000E+000	-1.29089E-002	0.00000E+000	9	...........	1488.69
	214	2.39008	-1.39392E-002	-1.25842E-006	0.00000E+000	-1.39092E-002	0.00000E+000	9	...........	1488.69
	215	2.4012	-1.49397E-002	-1.26393E-006	0.00000E+000	-1.49094E-002	0.00000E+000	9	...........	1488.69
	216	2.41232	-1.59407E-002	-1.29363E-006	0.00000E+000	-1.59097E-002	0.00000E+000	9	...........	1488.69
	217	2.42343	-1.69393E-002	-1.30216E-006	0.00000E+000	-1.69100E-002	0.00000E+000	9	...........	1488.69
	218	2.43455	-1.79394E-002	-1.32558E-006	0.00000E+000	-1.79102E-002	0.00000E+000	9	...........	1488.69
	219	2.44567	-1.89413E-002	-1.33647E-006	0.00000E+000	-1.89105E-002	0.00000E+000	9	...........	1488.69
	220	2.45678	-1.99424E-002	-1.35864E-006	0.00000E+000	-1.99108E-002	0.00000E+000	9	...........	1488.69
	221	2.4679	-2.09446E-002	-1.36827E-006	0.00000E+000	-2.09110E-002	0.00000E+000	9	...........	1488.69
	222	2.47902	-2.19431E-002	-1.37464E-006	0.00000E+000	-2.19113E-002	0.00000E+000	9	...........	1488.69
	223	2.49013	-2.29448E-002	-1.39842E-006	0.00000E+000	-2.29116E-002	0.00000E+000	9	...........	1488.69
	224	2.50125	-2.39450E-002	-1.39681E-006	0.00000E+000	-2.39118E-002	0.00000E+000	9	...........	1488.69
	225	2.51237	-2.49465E-002	-1.42210E-006	0.00000E+000	-2.49121E-002	0.00000E+000	9	...........	1488.69
	226	2.52348	-2.59456E-002	-1.44076E-006	0.00000E+000	-2.59124E-002	0.00000E+000	9	...........	1488.69
	227	2.5346	-2.69487E-002	-1.44863E-006	0.00000E+000	-2.69126E-002	0.00000E+000	9	...........	1488.69
	228	2.54572	-2.79490E-002	-1.46022E-006	0.00000E+000	-2.79129E-002	0.00000E+000	9	...........	1488.69
	229	2.55683	-2.89487E-002	-1.45972E-006	0.00000E+000	-2.89132E-002	0.00000E+000	9	...........	1488.69
	230	2.56795	-2.99475E-002	-1.48625E-006	0.00000E+000	-2.99134E-002	0.00000E+000	9	...........	1488.69
	231	2.57907	-3.09502E-002	-1.49418E-006	0.00000E+000	-3.09137E-002	0.00000E+000	9	...........	1488.69
	232	2.59018	-3.19515E-002	-1.50682E-006	0.00000E+000	-3.19140E-002	0.00000E+000	9	...........	1488.69
	233	2.6013	-3.29533E-002	-1.50562E-006	0.00000E+000	-3.29142E-002	0.00000E+000	9	...........	1488.69
	234	2.61242	-3.39530E-002	-1.51826E-006	0.00000E+000	-3.39145E-002	0.00000E+000	9	...........	1488.69
	235	2.62353	-3.49547E-002	-1.52899E-006	0.00000E+000	-3.49148E-002	0.00000E+000	9	...........	1488.69
	236	2.63465	-3.59531E-002	-1.53261E-006	0.00000E+000	-3.59150E-002	0.00000E+000	9	...........	1488.69
	237	2.64577	-3.69540E-002	-1.54404E-006	0.00000E+000	-3.69153E-002	0.00000E+000	9	...........	1488.69
	238	2.65688	-3.79538E-002	-1.55302E-006	0.00000E+000	-3.79156E-002	0.00000E+000	9	...........	1488.69
	239	2.668	-3.89557E-002	-1.56521E-006	0.00000E+000	-3.89158E-002	0.00000E+000	9	...........	1488.69
	240	2.67912	-3.99572E-002	-1.56501E-006	0.00000E+000	-3.99161E-002	0.00000E+000	9	...........	1488.69
	241	2.69023	-4.09565E-002	-1.57329E-006	0.00000E+000	-4.09164E-002	0.00000E+000	9	...........	1488.69
	242	2.70135	-4.19579E-002	-1.58492E-006	0.00000E+000	-4.19166E-002	0.00000E+000	9	...........	1488.69
	243	2.71247	-4.29560E-002	-1.58513E-006	0.00000E+000	-4.29169E-002	0.00000E+000	9	...........	1488.69
	244	2.72358	-4.39576E-002	-1.60103E-006	0.00000E+000	-4.39172E-002	0.00000E+000	9	...........	1488.69
	245	2.7347	-4.49575E-002	-1.60589E-006	0.00000E+000	-4.49174E-002	0.00000E+000	9	...........	1488.69
	246	2.74582	-4.59585E-002	-1.62054E-006	0.00000E+000	-4.59177E-002	0.00000E+000	9	...........	1488.69
	247	2.75693	-4.69611E-002	-1.61638E-006	0.00000E+000	-4.69180E-002	0.00000E+000	9	...........	1488.69
	248	2.76805	-4.79603E-002	-1.62907E-006	0.00000E+000	-4.79183E-002	0.00000E+000	9	...........	1488.69
	249	2.77917	-4.89564E-002	-1.63288E-006	0.00000E+000	-4.89185E-002	0.00000E+000	9	...........	1488.69
	250	2.79028	-4.99722E-002	-1.66192E-006	0.00000E+000	-4.99313E-002	0.00000E+000	9	...........	1488.69
	251	2.8014	-5.09724E-002	-1.64858E-006	0.00000E+000	-5.09316E-002	0.00000E+000	9	...........	1488.69
	252	2.81252	-5.19750E-002	-1.64888E-006	0.00000E+000	-5.19318E-002	0.00000E+000	9	...........	1488.69
	253	2.82363	-5.29783E-002	-1.66258E-006	0.00000E+000	-5.29321E-002	0.00000E+000	9	...........	1488.69
	254	2.83475	-5.39752E-002	-1.67366E-006	0.00000E+000	-5.39324E-002	0.00000E+000	9	...........	1488.69
	255	2.84587	-5.49768E-002	-1.68395E-006	0.00000E+000	-5.49326E-002	0.00000E+000	9	...........	1488.69
	256	2.85698	-5.59760E-002	-1.67361E-006	0.00000E+000	-5.59329E-002	0.00000E+000	9	...........	1488.69
	257	2.8681	-5.69782E-002	-1.69152E-006	0.00000E+000	-5.69332E-002	0.00000E+000	9	...........	1488.69
	258	2.87922	-5.79788E-002	-1.70055E-006	0.00000E+000	-5.79334E-002	0.00000E+000	9	...........	1488.69
	259	2.89033	-5.89783E-002	-1.70722E-006	0.00000E+000	-5.89337E-002	0.00000E+000	9	...........	1488.69
	260	2.90145	-5.99799E-002	-1.71279E-006	0.00000E+000	-5.99340E-002	0.00000E+000	9	...........	1488.69
	261	2.91257	-6.09790E-002	-1.70251E-006	0.00000E+000	-6.09342E-002	0.00000E+000	9	...........	1488.69
	262	2.92368	-6.19785E-002	-1.72914E-006	0.00000E+000	-6.19345E-002	0.00000E+000	9	...........	1488.69
	263	2.9348	-6.29790E-002	-1.72979E-006	0.00000E+000	-6.29348E-002	0.00000E+000	9	...........	1488.69
	264	2.94592	-6.39817E-002	-1.73035E-006	0.00000E+000	-6.39350E-002	0.00000E+000	9	...........	1488.69
	265	2.95703	-6.49827E-002	-1.75192E-006	0.00000E+000	-6.49353E-002	0.00000E+000	9	...........	1488.69
	266	2.96815	-6.59845E-002	-1.75899E-006	0.00000E+000	-6.59356E-002	0.00000E+000	9	...........	1488.69
	267	2.97927	-6.69842E-002	-1.76225E-006	0.00000E+000	-6.69358E-002	0.00000E+000	9	...........	1488.69
	268	2.99038	-6.79839E-002	-1.77013E-006	0.00000E+000	-6.79361E-002	0.00000E+000	9	...........	1488.69
	269	3.0015	-6.89835E-002	-1.77088E-006	0.00000E+000	-6.89364E-002	0.00000E+000	9	...........	1488.69
	270	3.01262	-6.99864E-002	-1.78367E-006	0.00000E+000	-6.99366E-002	0.00000E+000	9	...........	1488.69
	271	3.02373	-7.09861E-002	-1.79210E-006	0.00000E+000	-7.09369E-002	0.00000E+000	9	...........	1488.69
	272	3.03485	-7.19880E-002	-1.79641E-006	0.00000E+000	-7.19372E-002	0.00000E+000	9	...........	1488.69
	273	3.04597	-7.29857E-002	-1.80228E-006	0.00000E+000	-7.29374E-002	0.00000E+000	9	...........	1488.69
	274	3.05708	-7.39872E-002	-1.79857E-006	0.00000E+000	-7.39377E-002	0.00000E+000	9	...........	1488.69
	275	3.0682	-7.49878E-002	-1.81959E-006	0.00000E+000	-7.49380E-002	0.00000E+000	9	...........	1488.69
	276	3.07932	-7.59886E-002	-1.81994E-006	0.00000E+000	-7.59382E-002	0.00000E+000	9	...........	1488.69
	277	3.09043	-7.69888E-002	-1.84121E-006	0.00000E+000	-7.69385E-002	0.00000E+000	9	...........	1488.69
	278	3.10155	-7.79905E-002	-1.83504E-006	0.00000E+000	-7.79388E-002	0.00000E+000	9	...........	1488.69
	279	3.11267	-7.89904E-002	-1.84121E-006	0.00000E+000	-7.89390E-002	0.00000E+000	9	...........	1488.69
	280	3.12378	-7.99905E-002	-1.85410E-006	0.00000E+000	-7.99393E-002	0.00000E+000	9	...........	1488.69
	281	3.1349	-8.09905E-002	-1.85816E-006	0.00000E+000	-8.09396E-002	0.00000E+000	9	...........	1488.69
	282	3.14602	-8.19883E-002	-1.86383E-006	0.00000E+000	-8.19398E-002	0.00000E+000	9	...........	1488.69
	283	3.15713	-8.29887E-002	-1.86488E-006	0.00000E+000	-8.29401E-002	0.00000E+000	9	...........	1488.69
	284	3.16825	-8.39885E-002	-1.88650E-006	0.00000E+000	-8.39404E-002	0.00000E+000	9	...........	1488.69
	285	3.17937	-8.49909E-002	-1.88741E-006	0.00000E+000	-8.49406E-002	0.00000E+000	9	...........	1488.69
	286	3.19048	-8.59896E-002	-1.88174E-006	0.00000E+000	-8.59409E-002	0.00000E+000	9	...........	1488.69
	287	3.2016	-8.69897E-002	-1.91143E-006	0.00000E+000	-8.69412E-002	0.00000E+000	9	...........	1488.69
	288	3.21272	-8.79905E-002	-1.89207E-006	0.00000E+000	-8.79415E-002	0.00000E+000	9	...........	1488.69
	289	3.22383	-8.89931E-002	-1.92016E-006	0.00000E+000	-8.89417E-002	0.00000E+000	9	...........	1488.69
	290	3.23495	-8.99926E-002	-1.91189E-006	0.00000E+000	-8.99420E-002	0.00000E+000	9	...........	1488.69
	291	3.24607	-9.09935E-002	-1.93210E-006	0.00000E+000	-9.09423E-002	0.00000E+000	9	...........	1488.69
	292	3.25718	-9.19956E-002	-1.92919E-006	0.00000E+000	-9.19425E-002	0.00000E+000	9	...........	1488.69
	293	3.2683	-9.29958E-002	-1.93842E-006	0.00000E+000	-9.29428E-002	0.00000E+000	9	...........	1488.69
	294	3.27942	-9.39950E-002	-1.93626E-006	0.00000E+000	-9.39431E-002	0.00000E+000	9	...........	1488.69
	295	3.29053	-9.49964E-002	-1.95533E-006	0.00000E+000	-9.49433E-002	0.00000E+000	9	...........	1488.69
	296	3.30165	-9.59976E-002	-1.96907E-006	0.00000E+000	-9.59436E-002	0.00000E+000	9	...........	1488.69
	297	3.31277	-9.69996E-002	-1.96732E-006	0.00000E+000	-9.69439E-002	0.00000E+000	9	...........	1488.69
	298	3.32388	-9.79994E-002	-1.97690E-006	0.00000E+000	-9.79441E-002	0.00000E+000	9	...........	1488.69
	299	3.335	-9.90009E-002	-1.98327E-006	0.00000E+000	-9.89444E-002	0.00000E+000	9	...........	1488.69
	300	3.34612	-9.99975E-002	-1.97534E-006	0.00000E+000	-9.99447E-002	0.00000E+000	9	...........	1488.69
	301	3.35723	-1.00998E-001	-1.99385E-006	0.00000E+000	-1.00945E-001	0.00000E+000	9	...........	1488.69
	302	3.36835	-1.01999E-001	-2.00133E-006	0.00000E+000	-1.01945E-001	0.00000E+000	9	...........	1488.69
	303	3.37947	-1.03000E-001	-2.00805E-006	0.00000E+000	-1.02945E-001	0.00000E+000	9	...........	1488.69
	304	3.39058	-1.04012E-001	-2.03223E-006	0.00000E+000	-1.03958E-001	0.00000E+000	9	...........	1488.69
	305	3.4017	-1.05013E-001	-2.03940E-006	0.00000E+000	-1.04958E-001	0.00000E+000	9	...........	1488.69
	306	3.41282	-1.06012E-001	-2.02119E-006	0.00000E+000	-1.05959E-001	0.00000E+000	9	...........	1488.69
	307	3.42393	-1.07011E-001	-2.04672E-006	0.00000E+000	-1.06959E-001	0.00000E+000	9	...........	1488.69
	308	3.43505	-1.08012E-001	-2.04537E-006	0.00000E+000	-1.07959E-001	0.00000E+000	9	...........	1488.69
	309	3.44617	-1.09012E-001	-2.05776E-006	0.00000E+000	-1.08960E-001	0.00000E+000	9	...........	1488.69
	310	3.45728	-1.10014E-001	-2.05901E-006	0.00000E+000	-1.09960E-001	0.00000E+000	9	...........	1488.69
	311	3.4684	-1.11014E-001	-2.07401E-006	0.00000E+000	-1.10960E-001	0.00000E+000	9	...........	1488.69
	312	3.47952	-1.12014E-001	-2.06749E-006	0.00000E+000	-1.11960E-001	0.00000E+000	9	...........	1488.69
	313	3.49063	-1.13012E-001	-2.07637E-006	0.00000E+000	-1.12961E-001	0.00000E+000	9	...........	1488.69
	314	3.50175	-1.14013E-001	-2.09879E-006	0.00000E+000	-1.13961E-001	0.00000E+000	9	...........	1488.69
	315	3.51287	-1.15016E-001	-2.09583E-006	0.00000E+000	-1.14961E-001	0.00000E+000	9	...........	1488.69
	316	3.52398	-1.16017E-001	-2.10185E-006	0.00000E+000	-1.15961E-001	0.00000E+000	9	...........	1488.69
	317	3.5351	-1.17017E-001	-2.10441E-006	0.00000E+000	-1.16962E-001	0.00000E+000	9	...........	1488.69
	318	3.54622	-1.18015E-001	-2.11916E-006	0.00000E+000	-1.17962E-001	0.00000E+000	9	...........	1488.69
	319	3.55733	-1.19017E-001	-2.11841E-006	0.00000E+000	-1.18962E-001	0.00000E+000	9	...........	1488.69
	320	3.56845	-1.20014E-001	-2.12081E-006	0.00000E+000	-1.19963E-001	0.00000E+000	9	...........	1488.69
	321	3.57957	-1.21016E-001	-2.13802E-006	0.00000E+000	-1.20963E-001	0.00000E+000	9	...........	1488.69
	322	3.59068	-1.22018E-001	-2.13401E-006	0.00000E+000	-1.21963E-001	0.00000E+000	9	...........	1488.69
	323	3.6018	-1.23019E-001	-2.16235E-006	0.00000E+000	-1.22963E-001	0.00000E+000	9	...........	1488.69
	324	3.61292	-1.24019E-001	-2.15753E-006	0.00000E+000	-1.23964E-001	0.00000E+000	9	...........	1488.69
	325	3.62403	-1.25017E-001	-2.17258E-006	0.00000E+000	-1.24964E-001	0.00000E+000	9	...........	1488.69
	326	3.63515	-1.26018E-001	-2.17965E-006	0.00000E+000	-1.25964E-001	0.00000E+000	9	...........	1488.69
	327	3.64627	-1.27016E-001	-2.19310E-006	0.00000E+000	-1.26964E-001	0.00000E+000	9	...........	1488.69
	328	3.65738	-1.28018E-001	-2.19430E-006	0.00000E+000	-1.27965E-001	0.00000E+000	9	...........	1488.69
	329	3.6685	-1.29022E-001	-2.21055E-006	0.00000E+000	-1.28965E-001	0.00000E+000	9	...........	1488.69
	330	3.67962	-1.30022E-001	-2.21171E-006	0.00000E+000	-1.29965E-001	0.00000E+000	9	...........	1488.69
	331	3.69073	-1.31020E-001	-2.21602E-006	0.00000E+000	-1.30965E-001	0.00000E+000	9	...........	1488.69
	332	3.70185	-1.32020E-001	-2.23217E-006	0.00000E+000	-1.31966E-001	0.00000E+000	9	...........	1488.69
	333	3.71297	-1.33020E-001	-2.23930E-006	0.00000E+000	-1.32966E-001	0.00000E+000	9	...........	1488.69
	334	3.72408	-1.34021E-001	-2.24286E-006	0.00000E+000	-1.33966E-001	0.00000E+000	9	...........	1488.69
	335	3.7352	-1.35022E-001	-2.24271E-006	0.00000E+000	-1.34967E-001	0.00000E+000	9	...........	1488.69
	336	3.74632	-1.36021E-001	-2.27832E-006	0.00000E+000	-1.35967E-001	0.00000E+000	9	...........	1488.69
	337	3.75743	-1.37022E-001	-2.26814E-006	0.00000E+000	-1.36967E-001	0.00000E+000	9	...........	1488.69
	338	3.76855	-1.38026E-001	-2.28018E-006	0.00000E+000	-1.37967E-001	0.00000E+000	9	...........	1488.69
	339	3.77967	-1.39023E-001	-2.29558E-006	0.00000E+000	-1.38968E-001	0.00000E+000	9	...........	1488.69
	340	3.79078	-1.40024E-001	-2.29563E-006	0.00000E+000	-1.39968E-001	0.00000E+000	9	...........	1488.69
	341	3.8019	-1.41025E-001	-2.31414E-006	0.00000E+000	-1.40968E-001	0.00000E+000	9	...........	1488.69
	342	3.81302	-1.42025E-001	-2.31861E-006	0.00000E+000	-1.41968E-001	0.00000E+000	9	...........	1488.69
	343	3.82413	-1.43026E-001	-2.33245E-006	0.00000E+000	-1.42969E-001	0.00000E+000	9	...........	1488.69
	344	3.83525	-1.44025E-001	-2.33526E-006	0.00000E+000	-1.43969E-001	0.00000E+000	9	...........	1488.69
	345	3.84637	-1.45025E-001	-2.35392E-006	0.00000E+000	-1.44969E-001	0.00000E+000	9	...........	1488.69
	346	3.85748	-1.46026E-001	-2.36591E-006	0.00000E+000	-1.45969E-001	0.00000E+000	9	...........	1488.69
	347	3.8686	-1.47028E-001	-2.37850E-006	0.00000E+000	-1.46970E-001	0.00000E+000	9	...........	1488.69
	348	3.87972	-1.48028E-001	-2.37900E-006	0.00000E+000	-1.47970E-001	0.00000E+000	9	...........	1488.69
	349	3.89083	-1.49028E-001	-2.39119E-006	0.00000E+000	-1.48970E-001	0.00000E+000	9	...........	1488.69
	350	3.90195	-1.50028E-001	-2.41256E-006	0.00000E+000	-1.49971E-001	0.00000E+000	9	...........	1488.69
	351	3.91307	-1.51028E-001	-2.41712E-006	0.00000E+000	-1.50971E-001	0.00000E+000	9	...........	1488.69
	352	3.92418	-1.52027E-001	-2.41968E-006	0.00000E+000	-1.51971E-001	0.00000E+000	9	...........	1488.69
	353	3.9353	-1.53027E-001	-2.44507E-006	0.00000E+000	-1.52971E-001	0.00000E+000	9	...........	1488.69
	354	3.94642	-1.54028E-001	-2.45003E-006	0.00000E+000	-1.53972E-001	0.00000E+000	9	...........	1488.69
	355	3.95753	-1.55031E-001	-2.46458E-006	0.00000E+000	-1.54972E-001	0.00000E+000	9	...........	1488.69
	356	3.96865	-1.56030E-001	-2.47782E-006	0.00000E+000	-1.55972E-001	0.00000E+000	9	...........	1488.69
	357	3.97977	-1.57030E-001	-2.48479E-006	0.00000E+000	-1.56972E-001	0.00000E+000	9	...........	1488.69
	358	3.99088	-1.58042E-001	-2.51870E-006	0.00000E+000	-1.57985E-001	0.00000E+000	9	...........	1488.69
	359	4.002	-1.59041E-001	-2.50973E-006	0.00000E+000	-1.58985E-001	0.00000E+000	9	...........	1488.69
	360	4.01312	-1.60044E-001	-2.50887E-006	0.00000E+000	-1.59986E-001	0.00000E+000	9	...........	1488.69
	361	4.02423	-1.61043E-001	-2.53762E-006	0.00000E+000	-1.60986E-001	0.00000E+000	9	...........	1488.69
	362	4.03535	-1.62044E-001	-2.53099E-006	0.00000E+000	-1.61986E-001	0.00000E+000	9	...........	1488.69
	363	4.04647	-1.63046E-001	-2.54664E-006	0.00000E+000	-1.62987E-001	0.00000E+000	9	...........	1488.69
	364	4.05758	-1.64044E-001	-2.55773E-006	0.00000E+000	-1.63987E-001	0.00000E+000	9	...........	1488.69
	365	4.0687	-1.65044E-001	-2.56571E-006	0.00000E+000	-1.64987E-001	0.00000E+000	9	...........	1488.69
	366	4.07982	-1.66045E-001	-2.60157E-006	0.00000E+000	-1.65987E-001	0.00000E+000	9	...........	1488.69
	367	4.09093	-1.67046E-001	-2.59279E-006	0.00000E+000	-1.66988E-001	0.00000E+000	9	...........	1488.69
	368	4.10205	-1.68045E-001	-2.61246E-006	0.00000E+000	-1.67988E-001	0.00000E+000	9	...........	1488.69
[...]
	1011	11.2501	-1.09383E-002	-1.19566E-006	0.00000E+000	-1.09084E-002	0.00000E+000	9	...........	1488.69
	1012	11.2612	-1.19375E-002	-1.23103E-006	0.00000E+000	-1.19086E-002	0.00000E+000	9	...........	1488.69
	1013	11.2723	-1.29381E-002	-1.24452E-006	0.00000E+000	-1.29089E-002	0.00000E+000	9	...........	1488.69
	1014	11.2834	-1.39402E-002	-1.26293E-006	0.00000E+000	-1.39092E-002	0.00000E+000	9	...........	1488.69
	1015	11.2945	-1.49404E-002	-1.28430E-006	0.00000E+000	-1.49094E-002	0.00000E+000	9	...........	1488.69
	1016	11.3056	-1.59436E-002	-1.29895E-006	0.00000E+000	-1.59097E-002	0.00000E+000	9	...........	1488.69
	1017	11.3168	-1.69401E-002	-1.32408E-006	0.00000E+000	-1.69100E-002	0.00000E+000	9	...........	1488.69
	1018	11.3279	-1.79391E-002	-1.33923E-006	0.00000E+000	-1.79102E-002	0.00000E+000	9	...........	1488.69
	1019	11.339	-1.89407E-002	-1.35774E-006	0.00000E+000	-1.89105E-002	0.00000E+000	9	...........	1488.69
	1020	11.3501	-1.99426E-002	-1.37123E-006	0.00000E+000	-1.99108E-002	0.00000E+000	9	...........	1488.69
	1021	11.3612	-2.09456E-002	-1.38297E-006	0.00000E+000	-2.09110E-002	0.00000E+000	9	...........	1488.69
	1022	11.3723	-2.19454E-002	-1.40123E-006	0.00000E+000	-2.19113E-002	0.00000E+000	9	...........	1488.69
	1023	11.3835	-2.29445E-002	-1.39426E-006	0.00000E+000	-2.29116E-002	0.00000E+000	9	...........	1488.69
	1024	11.3946	-2.39449E-002	-1.41432E-006	0.00000E+000	-2.39118E-002	0.00000E+000	9	...........	1488.69
	1025	11.4057	-2.49452E-002	-1.43052E-006	0.00000E+000	-2.49121E-002	0.00000E+000	9	...........	1488.69
	1026	11.4168	-2.59470E-002	-1.43494E-006	0.00000E+000	-2.59124E-002	0.00000E+000	9	...........	1488.69
	1027	11.4279	-2.69476E-002	-1.45355E-006	0.00000E+000	-2.69126E-002	0.00000E+000	9	...........	1488.69
	1028	11.439	-2.79487E-002	-1.46639E-006	0.00000E+000	-2.79129E-002	0.00000E+000	9	...........	1488.69
	1029	11.4502	-2.89487E-002	-1.47146E-006	0.00000E+000	-2.89132E-002	0.00000E+000	9	...........	1488.69
	1030	11.4613	-2.99468E-002	-1.47000E-006	0.00000E+000	-2.99134E-002	0.00000E+000	9	...........	1488.69
	1031	11.4724	-3.09489E-002	-1.49237E-006	0.00000E+000	-3.09137E-002	0.00000E+000	9	...........	1488.69
	1032	11.4835	-3.19505E-002	-1.49789E-006	0.00000E+000	-3.19140E-002	0.00000E+000	9	...........	1488.69
	1033	11.4946	-3.29513E-002	-1.50792E-006	0.00000E+000	-3.29142E-002	0.00000E+000	9	...........	1488.69
	1034	11.5057	-3.39515E-002	-1.51710E-006	0.00000E+000	-3.39145E-002	0.00000E+000	9	...........	1488.69
	1035	11.5169	-3.49534E-002	-1.53597E-006	0.00000E+000	-3.49148E-002	0.00000E+000	9	...........	1488.69
	1036	11.528	-3.59501E-002	-1.53115E-006	0.00000E+000	-3.59150E-002	0.00000E+000	9	...........	1488.69
	1037	11.5391	-3.69529E-002	-1.54660E-006	0.00000E+000	-3.69153E-002	0.00000E+000	9	...........	1488.69
	1038	11.5502	-3.79529E-002	-1.55217E-006	0.00000E+000	-3.79156E-002	0.00000E+000	9	...........	1488.69
	1039	11.5613	-3.89571E-002	-1.56195E-006	0.00000E+000	-3.89158E-002	0.00000E+000	9	...........	1488.69
	1040	11.5724	-3.99584E-002	-1.58051E-006	0.00000E+000	-3.99161E-002	0.00000E+000	9	...........	1488.69
	1041	11.5836	-4.09550E-002	-1.56973E-006	0.00000E+000	-4.09164E-002	0.00000E+000	9	...........	1488.69
	1042	11.5947	-4.19568E-002	-1.58543E-006	0.00000E+000	-4.19166E-002	0.00000E+000	9	...........	1488.69
	1043	11.6058	-4.29576E-002	-1.59701E-006	0.00000E+000	-4.29169E-002	0.00000E+000	9	...........	1488.69
	1044	11.6169	-4.39596E-002	-1.59982E-006	0.00000E+000	-4.39172E-002	0.00000E+000	9	...........	1488.69
	1045	11.628	-4.49569E-002	-1.61221E-006	0.00000E+000	-4.49174E-002	0.00000E+000	9	...........	1488.69
	1046	11.6391	-4.59605E-002	-1.62049E-006	0.00000E+000	-4.59177E-002	0.00000E+000	9	...........	1488.69
	1047	11.6503	-4.69612E-002	-1.62912E-006	0.00000E+000	-4.69180E-002	0.00000E+000	9	...........	1488.69
	1048	11.6614	-4.79623E-002	-1.63072E-006	0.00000E+000	-4.79183E-002	0.00000E+000	9	...........	1488.69
	1049	11.6725	-4.89574E-002	-1.64186E-006	0.00000E+000	-4.89185E-002	0.00000E+000	9	...........	1488.69
	1050	11.6836	-4.99721E-002	-1.67883E-006	0.00000E+000	-4.99313E-002	0.00000E+000	9	...........	1488.69
	1051	11.6947	-5.09751E-002	-1.66990E-006	0.00000E+000	-5.09316E-002	0.00000E+000	9	...........	1488.69
	1052	11.7058	-5.19746E-002	-1.66112E-006	0.00000E+000	-5.19318E-002	0.00000E+000	9	...........	1488.69
	1053	11.717	-5.29752E-002	-1.67487E-006	0.00000E+000	-5.29321E-002	0.00000E+000	9	...........	1488.69
	1054	11.7281	-5.39749E-002	-1.68038E-006	0.00000E+000	-5.39324E-002	0.00000E+000	9	...........	1488.69
	1055	11.7392	-5.49760E-002	-1.69328E-006	0.00000E+000	-5.49326E-002	0.00000E+000	9	...........	1488.69
	1056	11.7503	-5.59753E-002	-1.68971E-006	0.00000E+000	-5.59329E-002	0.00000E+000	9	...........	1488.69
	1057	11.7614	-5.69774E-002	-1.70000E-006	0.00000E+000	-5.69332E-002	0.00000E+000	9	...........	1488.69
	1058	11.7725	-5.79779E-002	-1.71670E-006	0.00000E+000	-5.79334E-002	0.00000E+000	9	...........	1488.69
	1059	11.7837	-5.89793E-002	-1.70486E-006	0.00000E+000	-5.89337E-002	0.00000E+000	9	...........	1488.69
	1060	11.7948	-5.99793E-002	-1.72177E-006	0.00000E+000	-5.99340E-002	0.00000E+000	9	...........	1488.69
	1061	11.8059	-6.09791E-002	-1.72463E-006	0.00000E+000	-6.09342E-002	0.00000E+000	9	...........	1488.69
	1062	11.817	-6.19779E-002	-1.73275E-006	0.00000E+000	-6.19345E-002	0.00000E+000	9	...........	1488.69
	1063	11.8281	-6.29791E-002	-1.73652E-006	0.00000E+000	-6.29348E-002	0.00000E+000	9	...........	1488.69
	1064	11.8392	-6.39802E-002	-1.74856E-006	0.00000E+000	-6.39350E-002	0.00000E+000	9	...........	1488.69
	1065	11.8504	-6.49820E-002	-1.75116E-006	0.00000E+000	-6.49353E-002	0.00000E+000	9	...........	1488.69
	1066	11.8615	-6.59825E-002	-1.75327E-006	0.00000E+000	-6.59356E-002	0.00000E+000	9	...........	1488.69
	1067	11.8726	-6.69833E-002	-1.78347E-006	0.00000E+000	-6.69358E-002	0.00000E+000	9	...........	1488.69
	1068	11.8837	-6.79828E-002	-1.77063E-006	0.00000E+000	-6.79361E-002	0.00000E+000	9	...........	1488.69
	1069	11.8948	-6.89830E-002	-1.78437E-006	0.00000E+000	-6.89364E-002	0.00000E+000	9	...........	1488.69
	1070	11.9059	-6.99851E-002	-1.78638E-006	0.00000E+000	-6.99366E-002	0.00000E+000	9	...........	1488.69
	1071	11.9171	-7.09859E-002	-1.79586E-006	0.00000E+000	-7.09369E-002	0.00000E+000	9	...........	1488.69
	1072	11.9282	-7.19862E-002	-1.80795E-006	0.00000E+000	-7.19372E-002	0.00000E+000	9	...........	1488.69
	1073	11.9393	-7.29859E-002	-1.80800E-006	0.00000E+000	-7.29374E-002	0.00000E+000	9	...........	1488.69
	1074	11.9504	-7.39880E-002	-1.82380E-006	0.00000E+000	-7.39377E-002	0.00000E+000	9	...........	1488.69
	1075	11.9615	-7.49872E-002	-1.81281E-006	0.00000E+000	-7.49380E-002	0.00000E+000	9	...........	1488.69
	1076	11.9727	-7.59886E-002	-1.83739E-006	0.00000E+000	-7.59382E-002	0.00000E+000	9	...........	1488.69
	1077	11.9838	-7.69865E-002	-1.84397E-006	0.00000E+000	-7.69385E-002	0.00000E+000	9	...........	1488.69
	1078	11.9949	-7.79889E-002	-1.84156E-006	0.00000E+000	-7.79388E-002	0.00000E+000	9	...........	1488.69
	1079	12.006	-7.89884E-002	-1.85555E-006	0.00000E+000	-7.89390E-002	0.00000E+000	9	...........	1488.69
	1080	12.0171	-7.99900E-002	-1.85972E-006	0.00000E+000	-7.99393E-002	0.00000E+000	9	...........	1488.69
	1081	12.0282	-8.09892E-002	-1.84913E-006	0.00000E+000	-8.09396E-002	0.00000E+000	9	...........	1488.69
	1082	12.0394	-8.19881E-002	-1.87938E-006	0.00000E+000	-8.19398E-002	0.00000E+000	9	...........	1488.69
	1083	12.0505	-8.29865E-002	-1.86769E-006	0.00000E+000	-8.29401E-002	0.00000E+000	9	...........	1488.69
	1084	12.0616	-8.39879E-002	-1.88650E-006	0.00000E+000	-8.39404E-002	0.00000E+000	9	...........	1488.69
	1085	12.0727	-8.49901E-002	-1.89383E-006	0.00000E+000	-8.49406E-002	0.00000E+000	9	...........	1488.69
	1086	12.0838	-8.59883E-002	-1.88901E-006	0.00000E+000	-8.59409E-002	0.00000E+000	9	...........	1488.69
	1087	12.0949	-8.69900E-002	-1.90481E-006	0.00000E+000	-8.69412E-002	0.00000E+000	9	...........	1488.69
	1088	12.1061	-8.79898E-002	-1.90326E-006	0.00000E+000	-8.79415E-002	0.00000E+000	9	...........	1488.69
	1089	12.1172	-8.89924E-002	-1.91324E-006	0.00000E+000	-8.89417E-002	0.00000E+000	9	...........	1488.69
	1090	12.1283	-8.99919E-002	-1.92097E-006	0.00000E+000	-8.99420E-002	0.00000E+000	9	...........	1488.69
	1091	12.1394	-9.09937E-002	-1.92914E-006	0.00000E+000	-9.09423E-002	0.00000E+000	9	...........	1488.69
	1092	12.1505	-9.19897E-002	-1.91961E-006	0.00000E+000	-9.19425E-002	0.00000E+000	9	...........	1488.69
	1093	12.1616	-9.29919E-002	-1.93551E-006	0.00000E+000	-9.29428E-002	0.00000E+000	9	...........	1488.69
	1094	12.1728	-9.39925E-002	-1.95101E-006	0.00000E+000	-9.39431E-002	0.00000E+000	9	...........	1488.69
	1095	12.1839	-9.49909E-002	-1.94785E-006	0.00000E+000	-9.49433E-002	0.00000E+000	9	...........	1488.69
	1096	12.195	-9.59924E-002	-1.96024E-006	0.00000E+000	-9.59436E-002	0.00000E+000	9	...........	1488.69
	1097	12.2061	-9.69973E-002	-1.96777E-006	0.00000E+000	-9.69439E-002	0.00000E+000	9	...........	1488.69
	1098	12.2172	-9.79966E-002	-1.97639E-006	0.00000E+000	-9.79441E-002	0.00000E+000	9	...........	1488.69
	1099	12.2283	-9.89973E-002	-1.97925E-006	0.00000E+000	-9.89444E-002	0.00000E+000	9	...........	1488.69
	1100	12.2395	-9.99953E-002	-1.99430E-006	0.00000E+000	-9.99447E-002	0.00000E+000	9	...........	1488.69
	1101	12.2506	-1.00995E-001	-1.97981E-006	0.00000E+000	-1.00945E-001	0.00000E+000	9	...........	1488.69
	1102	12.2617	-1.01996E-001	-2.00454E-006	0.00000E+000	-1.01945E-001	0.00000E+000	9	...........	1488.69
	1103	12.2728	-1.02998E-001	-2.02741E-006	0.00000E+000	-1.02945E-001	0.00000E+000	9	...........	1488.69
	1104	12.2839	-1.04009E-001	-2.03950E-006	0.00000E+000	-1.03958E-001	0.00000E+000	9	...........	1488.69
	1105	12.295	-1.05011E-001	-2.02676E-006	0.00000E+000	-1.04958E-001	0.00000E+000	9	...........	1488.69
	1106	12.3062	-1.06012E-001	-2.02746E-006	0.00000E+000	-1.05959E-001	0.00000E+000	9	...........	1488.69
	1107	12.3173	-1.07010E-001	-2.03679E-006	0.00000E+000	-1.06959E-001	0.00000E+000	9	...........	1488.69
	1108	12.3284	-1.08009E-001	-2.04085E-006	0.00000E+000	-1.07959E-001	0.00000E+000	9	...........	1488.69
	1109	12.3395	-1.09010E-001	-2.05987E-006	0.00000E+000	-1.08960E-001	0.00000E+000	9	...........	1488.69
	1110	12.3506	-1.10011E-001	-2.05977E-006	0.00000E+000	-1.09960E-001	0.00000E+000	9	...........	1488.69
	1111	12.3617	-1.11013E-001	-2.07456E-006	0.00000E+000	-1.10960E-001	0.00000E+000	9	...........	1488.69
	1112	12.3729	-1.12013E-001	-2.07471E-006	0.00000E+000	-1.11960E-001	0.00000E+000	9	...........	1488.69
	1113	12.384	-1.13009E-001	-2.07496E-006	0.00000E+000	-1.12961E-001	0.00000E+000	9	...........	1488.69
	1114	12.3951	-1.14011E-001	-2.09954E-006	0.00000E+000	-1.13961E-001	0.00000E+000	9	...........	1488.69
	1115	12.4062	-1.15012E-001	-2.09448E-006	0.00000E+000	-1.14961E-001	0.00000E+000	9	...........	1488.69
	1116	12.4173	-1.16014E-001	-2.10968E-006	0.00000E+000	-1.15961E-001	0.00000E+000	9	...........	1488.69
	1117	12.4284	-1.17015E-001	-2.11394E-006	0.00000E+000	-1.16962E-001	0.00000E+000	9	...........	1488.69
	1118	12.4396	-1.18014E-001	-2.12247E-006	0.00000E+000	-1.17962E-001	0.00000E+000	9	...........	1488.69
	1119	12.4507	-1.19015E-001	-2.11861E-006	0.00000E+000	-1.18962E-001	0.00000E+000	9	...........	1488.69
	1120	12.4618	-1.20012E-001	-2.13391E-006	0.00000E+000	-1.19963E-001	0.00000E+000	9	...........	1488.69
	1121	12.4729	-1.21015E-001	-2.15191E-006	0.00000E+000	-1.20963E-001	0.00000E+000	9	...........	1488.69
	1122	12.484	-1.22016E-001	-2.14429E-006	0.00000E+000	-1.21963E-001	0.00000E+000	9	...........	1488.69
	1123	12.4951	-1.23015E-001	-2.16611E-006	0.00000E+000	-1.22963E-001	0.00000E+000	9	...........	1488.69
	1124	12.5063	-1.24018E-001	-2.16897E-006	0.00000E+000	-1.23964E-001	0.00000E+000	9	...........	1488.69
	1125	12.5174	-1.25018E-001	-2.18462E-006	0.00000E+000	-1.24964E-001	0.00000E+000	9	...........	1488.69
	1126	12.5285	-1.26019E-001	-2.18547E-006	0.00000E+000	-1.25964E-001	0.00000E+000	9	...........	1488.90
	1127	12.5396	-1.27018E-001	-2.20489E-006	0.00000E+000	-1.26964E-001	0.00000E+000	9	...........	1488.97
	1128	12.5507	-1.28019E-001	-2.19992E-006	0.00000E+000	-1.27965E-001	0.00000E+000	9	...........	1488.97
	1129	12.5618	-1.29020E-001	-2.21146E-006	0.00000E+000	-1.28965E-001	0.00000E+000	9	...........	1488.97
	1130	12.573	-1.30022E-001	-2.22340E-006	0.00000E+000	-1.29965E-001	0.00000E+000	9	...........	1488.97
	1131	12.5841	-1.31021E-001	-2.23408E-006	0.00000E+000	-1.30965E-001	0.00000E+000	9	...........	1488.97
	1132	12.5952	-1.32021E-001	-2.22651E-006	0.00000E+000	-1.31966E-001	0.00000E+000	9	...........	1488.97
	1133	12.6063	-1.33021E-001	-2.24346E-006	0.00000E+000	-1.32966E-001	0.00000E+000	9	...........	1488.97
	1134	12.6174	-1.34023E-001	-2.25670E-006	0.00000E+000	-1.33966E-001	0.00000E+000	9	...........	1488.97
	1135	12.6285	-1.35023E-001	-2.25560E-006	0.00000E+000	-1.34967E-001	0.00000E+000	9	...........	1488.97
	1136	12.6397	-1.36023E-001	-2.27737E-006	0.00000E+000	-1.35967E-001	0.00000E+000	9	...........	1488.97
	1137	12.6508	-1.37022E-001	-2.27055E-006	0.00000E+000	-1.36967E-001	0.00000E+000	9	...........	1488.97
	1138	12.6619	-1.38024E-001	-2.29051E-006	0.00000E+000	-1.37967E-001	0.00000E+000	9	...........	1488.97
	1139	12.673	-1.39025E-001	-2.30657E-006	0.00000E+000	-1.38968E-001	0.00000E+000	9	...........	1488.97
	1140	12.6841	-1.40025E-001	-2.30265E-006	0.00000E+000	-1.39968E-001	0.00000E+000	9	...........	1488.97
	1141	12.6952	-1.41025E-001	-2.31233E-006	0.00000E+000	-1.40968E-001	0.00000E+000	9	...........	1488.97
	1142	12.7064	-1.42026E-001	-2.33195E-006	0.00000E+000	-1.41968E-001	0.00000E+000	9	...........	1488.97
	1143	12.7175	-1.43026E-001	-2.33320E-006	0.00000E+000	-1.42969E-001	0.00000E+000	9	...........	1488.97
	1144	12.7286	-1.44027E-001	-2.35131E-006	0.00000E+000	-1.43969E-001	0.00000E+000	9	...........	1488.97
	1145	12.7397	-1.45024E-001	-2.35362E-006	0.00000E+000	-1.44969E-001	0.00000E+000	9	...........	1488.97
	1146	12.7508	-1.46027E-001	-2.36942E-006	0.00000E+000	-1.45969E-001	0.00000E+000	9	...........	1488.97
	1147	12.7619	-1.47028E-001	-2.37699E-006	0.00000E+000	-1.46970E-001	0.00000E+000	9	...........	1488.97
	1148	12.7731	-1.48029E-001	-2.39014E-006	0.00000E+000	-1.47970E-001	0.00000E+000	9	...........	1488.97
	1149	12.7842	-1.49029E-001	-2.39380E-006	0.00000E+000	-1.48970E-001	0.00000E+000	9	...........	1488.97
	1150	12.7953	-1.50030E-001	-2.40850E-006	0.00000E+000	-1.49971E-001	0.00000E+000	9	...........	1488.97
	1151	12.8064	-1.51028E-001	-2.41161E-006	0.00000E+000	-1.50971E-001	0.00000E+000	9	...........	1488.97
	1152	12.8175	-1.52028E-001	-2.41788E-006	0.00000E+000	-1.51971E-001	0.00000E+000	9	...........	1488.97
	1153	12.8286	-1.53030E-001	-2.44135E-006	0.00000E+000	-1.52971E-001	0.00000E+000	9	...........	1488.97
	1154	12.8398	-1.54029E-001	-2.45144E-006	0.00000E+000	-1.53972E-001	0.00000E+000	9	...........	1488.97
	1155	12.8509	-1.55032E-001	-2.45715E-006	0.00000E+000	-1.54972E-001	0.00000E+000	9	...........	1488.97
	1156	12.862	-1.56031E-001	-2.46463E-006	0.00000E+000	-1.55972E-001	0.00000E+000	9	...........	1488.97
	1157	12.8731	-1.57031E-001	-2.48284E-006	0.00000E+000	-1.56972E-001	0.00000E+000	9	...........	1488.97
	1158	12.8842	-1.58043E-001	-2.50737E-006	0.00000E+000	-1.57985E-001	0.00000E+000	9	...........	1488.97
	1159	12.8953	-1.59042E-001	-2.51198E-006	0.00000E+000	-1.58985E-001	0.00000E+000	9	...........	1488.97
	1160	12.9065	-1.60043E-001	-2.49949E-006	0.00000E+000	-1.59986E-001	0.00000E+000	9	...........	1488.97
	1161	12.9176	-1.61046E-001	-2.53696E-006	0.00000E+000	-1.60986E-001	0.00000E+000	9	...........	1488.97
	1162	12.9287	-1.62045E-001	-2.53581E-006	0.00000E+000	-1.61986E-001	0.00000E+000	9	...........	1488.97
	1163	12.9398	-1.63047E-001	-2.55507E-006	0.00000E+000	-1.62987E-001	0.00000E+000	9	...........	1488.97
	1164	12.9509	-1.64046E-001	-2.56726E-006	0.00000E+000	-1.63987E-001	0.00000E+000	9	...........	1488.97
	1165	12.962	-1.65045E-001	-2.56751E-006	0.00000E+000	-1.64987E-001	0.00000E+000	9	...........	1488.97
	1166	12.9732	-1.66043E-001	-2.59134E-006	0.00000E+000	-1.65987E-001	0.00000E+000	9	...........	1488.97
	1167	12.9843	-1.67046E-001	-2.60202E-006	0.00000E+000	-1.66988E-001	0.00000E+000	9	...........	1488.97
	1168	12.9954	-1.68046E-001	-2.61136E-006	0.00000E+000	-1.67988E-001	0.00000E+000	9	...........	1488.97
	1169	13.0065	-1.69046E-001	-2.62385E-006	0.00000E+000	-1.68988E-001	0.00000E+000	9	...........	1488.97
	1170	13.0176	-1.70047E-001	-2.64301E-006	0.00000E+000	-1.69988E-001	0.00000E+000	9	...........	1488.97
	1171	13.0287	-1.71045E-001	-2.64286E-006	0.00000E+000	-1.70989E-001	0.00000E+000	9	...........	1488.97
	1172	13.0399	-1.72048E-001	-2.67025E-006	0.00000E+000	-1.71989E-001	0.00000E+000	9	...........	1488.97
	1173	13.051	-1.73047E-001	-2.68504E-006	0.00000E+000	-1.72989E-001	0.00000E+000	9	...........	1488.97
	1174	13.0621	-1.74048E-001	-2.68790E-006	0.00000E+000	-1.73989E-001	0.00000E+000	9	...........	1488.97
	1175	13.0732	-1.75049E-001	-2.71298E-006	0.00000E+000	-1.74990E-001	0.00000E+000	9	...........	1488.97
	1176	13.0843	-1.76051E-001	-2.72297E-006	0.00000E+000	-1.75990E-001	0.00000E+000	9	...........	1488.97
	1177	13.0954	-1.77047E-001	-2.74990E-006	0.00000E+000	-1.76990E-001	0.00000E+000	9	...........	1488.97
	1178	13.1066	-1.78051E-001	-2.75557E-006	0.00000E+000	-1.77991E-001	0.00000E+000	9	...........	1488.97
	1179	13.1177	-1.79051E-001	-2.77423E-006	0.00000E+000	-1.78991E-001	0.00000E+000	9	...........	1488.97
	1180	13.1288	-1.80053E-001	-2.78577E-006	0.00000E+000	-1.79991E-001	0.00000E+000	9	...........	1488.97
	1181	13.1399	-1.81056E-001	-2.80599E-006	0.00000E+000	-1.80991E-001	0.00000E+000	9	...........	1488.97
	1182	13.151	-1.82053E-001	-2.81341E-006	0.00000E+000	-1.81992E-001	0.00000E+000	9	...........	1488.97
	1183	13.1621	-1.83055E-001	-2.83277E-006	0.00000E+000	-1.82992E-001	0.00000E+000	9	...........	1488.97
	1184	13.1733	-1.84054E-001	-2.85264E-006	0.00000E+000	-1.83992E-001	0.00000E+000	9	...........	1488.97
	1185	13.1844	-1.85054E-001	-2.88003E-006	0.00000E+000	-1.84992E-001	0.00000E+000	9	...........	1488.97
	1186	13.1955	-1.86056E-001	-2.90250E-006	0.00000E+000	-1.85993E-001	0.00000E+000	9	...........	1488.97
	1187	13.2066	-1.87055E-001	-2.90626E-006	0.00000E+000	-1.86993E-001	0.00000E+000	9	...........	1488.97
	1188	13.2177	-1.88056E-001	-2.93270E-006	0.00000E+000	-1.87993E-001	0.00000E+000	9	...........	1488.97
	1189	13.2288	-1.89056E-001	-2.94504E-006	0.00000E+000	-1.88993E-001	0.00000E+000	9	...........	1488.97
	1190	13.24	-1.90056E-001	-2.97218E-006	0.00000E+000	-1.89994E-001	0.00000E+000	9	...........	1488.97
	1191	13.2511	-1.91056E-001	-2.98722E-006	0.00000E+000	-1.90994E-001	0.00000E+000	9	...........	1488.97
	1192	13.2622	-1.92056E-001	-3.00318E-006	0.00000E+000	-1.91994E-001	0.00000E+000	9	...........	1488.97
	1193	13.2733	-1.93058E-001	-3.03643E-006	0.00000E+000	-1.92995E-001	0.00000E+000	9	...........	1488.97
	1194	13.2844	-1.94058E-001	-3.04727E-006	0.00000E+000	-1.93995E-001	0.00000E+000	9	...........	1488.97
	1195	13.2955	-1.95060E-001	-3.07777E-006	0.00000E+000	-1.94995E-001	0.00000E+000	9	...........	1488.97
	1196	13.3067	-1.96061E-001	-3.08830E-006	0.00000E+000	-1.95995E-001	0.00000E+000	9	...........	1488.97
	1197	13.3178	-1.97060E-001	-3.12357E-006	0.00000E+000	-1.96996E-001	0.00000E+000	9	...........	1488.97
	1198	13.3289	-1.98063E-001	-3.15020E-006	0.00000E+000	-1.97996E-001	0.00000E+000	9	...........	1488.97
	1199	13.34	-1.99062E-001	-3.16400E-006	0.00000E+000	-1.98996E-001	0.00000E+000	9	...........	1488.97
	1200	13.3511	-2.00062E-001	-3.21155E-006	0.00000E+000	-1.99996E-001	0.00000E+000	9	...........	1488.97
CURVE4	TABLE
	Pt	T	Vf	Im	Vu	Sig	Ach	IERange	Over	Temp
	#	s	V vs. Ref.	A	V	V	V	#	bits	deg C
	1201	13.3622	-2.00081E-001	-7.35669E-007	0.00000E+000	-1.99996E-001	0.00000E+000	9	...........	1488.97