File: input/CV_ECSA_#1_#10.DTA
EXPLAIN
TAG	CV
TITLE	LABEL	ECSA	Test Identifier
DATE	LABEL	20.8.2024	Date
TIME	LABEL	8:39:53	Time
NOTES	NOTES	1	Notes...

PSTAT	PSTAT	IFC1010-36105	Potentiostat
VINIT	POTEN	-2.00000E-001	F	A Potential (V)
VLIMIT1	POTEN	0.00000E+000	F	A Potential (V)
VLIMIT2	POTEN	-2.00000E-001	F	A Potential (V)
VFINAL	POTEN	-2.00000E-001	F	A Potential (V)
SCANRATE	QUANT	9.99548E+001	A Real Number
STEPSIZE	QUANT	1.00000E+000	Step Size (mV)
CYCLES	IQUANT	3	Cycles (#)
IMODE	SELECTOR	1	I/E Range Mode
IRANGE	QUANT	3.00000E-001	Max Current (mA)
AREA	QUANT	1.00000E+000	Sample Area (cm^2)
EQDELAY	QUANT	0.00000E+000	Equil. Time (s)
IRCOMP	SELECTOR	0	IRComp
PFCOR	QUANT	5.00000E+001	PF Corr. (ohm)
SAMPLINGMODE	SELECTOR	2	Sampling Mode
EOC	QUANT	-0.1790659	Open Circuit (V)
ELECTRODETYPE	SELECTOR	0	Electrode Type
STRIPPING	TOGGLE	F	Used for Stripping
SEQUENCER	TOGGLE	TRUE	Run as Sequence
PSTATMODEL	IQUANT	64	Pstat Model
PSTATSECTION	LABEL	IFC1010-36105	Pstat Section
PSTATSERIALNO	LABEL	36105	Pstat Serial Number
CTRLMODE	IQUANT	1	Control Mode
ELECTROMETER	IQUANT	0	RE=0 or CS=1
IESTAB	IQUANT	2	I/E Stability
CASPEED	IQUANT	4	Control Amp Speed
CONVENTION	IQUANT	1	Current Convention
ICHRANGE	IQUANT	2	Ich Range
ICHRANGEMODE	TOGGLE	F	Ich Auto Range
ICHOFFSETENABLE	TOGGLE	F	Ich Offset Enable
ICHOFFSET	QUANT	0	Ich Offset (V)
ICHFILTER	IQUANT	3	Ich Filter
VCHRANGE	IQUANT	1	Vch Range
VCHRANGEMODE	TOGGLE	F	Vch Auto Range
VCHOFFSETENABLE	TOGGLE	F	Vch Offset Enable
VCHOFFSET	QUANT	0	Vch Offset (V)
VCHFILTER	IQUANT	3	Vch Filter
IERANGELOWERLIMIT	IQUANT	4	I/E Range Lower Limit
IERANGEMODE	TOGGLE	F	I/E AutoRange
IERANGE	IQUANT	9	I/E Range
ACHSELECT	IQUANT	0	Ach Select
ACHRANGE	IQUANT	2	Ach Range
ACHOFFSETENABLE	TOGGLE	F	Ach Offset Enable
ACHOFFSET	QUANT	0	Ach Offset (V)
ACHFILTER	IQUANT	1	Ach Filter
SENSECABLEID	IQUANT	13	Sense Cable ID
PWRCABLEID	IQUANT	13	Power Cable ID
DCCALDATE	LABEL	10/17/2023	DC Calibration Date
ACCALDATE	LABEL	6/2/2023	AC Calibration Date
FRAMEWORKVERSION	LABEL	7.10.3	Framework Version
INSTRUMENTVERSION	LABEL	4.91	Instrument Version
COMMVERSION	LABEL	3.10	Communications Version
CPUPLDVERSION	LABEL	2.22	CPU PLD Version
CTRLPLDVERSION	LABEL	0.00	CTRL PLD Version
PSTATPLDVERSION	LABEL	0.00	PSTAT PLD Version
CURVE1	TABLE
	Pt	T	Vf	Im	Vu	Sig	Ach	IERange	Over	Temp
	#	s	V vs. Ref.	A	V	V	V	#	bits	deg C
	0	0.01	-2.00079E-001	-4.33918E-007	0.00000E+000	-1.99996E-001	0.00000E+000	9	...........	1488.97
	1	0.02	-1.99101E-001	2.32349E-006	0.00000E+000	-1.98996E-001	0.00000E+000	9	...........	1488.97
	2	0.03	-1.98102E-001	2.47801E-006	0.00000E+000	-1.97996E-001	0.00000E+000	9	...........	1488.97
	3	0.04	-1.97101E-001	2.58266E-006	0.00000E+000	-1.96996E-001	0.00000E+000	9	...........	1488.97
	4	0.05	-1.96114E-001	2.61618E-006	0.00000E+000	-1.96008E-001	0.00000E+000	9	...........	1488.97
	5	0.06	-1.95112E-001	2.70120E-006	0.00000E+000	-1.95008E-001	0.00000E+000	9	...........	1488.97
	6	0.07	-1.94112E-001	2.75693E-006	0.00000E+000	-1.94007E-001	0.00000E+000	9	...........	1488.97
	7	0.08	-1.93113E-001	2.78805E-006	0.00000E+000	-1.93007E-001	0.00000E+000	9	...........	1488.97
	8	0.09	-1.92112E-001	2.82342E-006	0.00000E+000	-1.92007E-001	0.00000E+000	9	...........	1488.83
	9	0.1	-1.91112E-001	2.85572E-006	0.00000E+000	-1.91006E-001	0.00000E+000	9	...........	1488.78
	10	0.11	-1.90109E-001	2.88947E-006	0.00000E+000	-1.90006E-001	0.00000E+000	9	...........	1488.78
	11	0.12	-1.89111E-001	2.90575E-006	0.00000E+000	-1.89006E-001	0.00000E+000	9	...........	1488.78
	12	0.13	-1.88111E-001	2.92400E-006	0.00000E+000	-1.88006E-001	0.00000E+000	9	...........	1488.78
	13	0.14	-1.87109E-001	2.94335E-006	0.00000E+000	-1.87005E-001	0.00000E+000	9	...........	1488.78
	14	0.15	-1.86109E-001	2.97437E-006	0.00000E+000	-1.86005E-001	0.00000E+000	9	...........	1488.78
	15	0.16	-1.85108E-001	2.98430E-006	0.00000E+000	-1.85005E-001	0.00000E+000	9	...........	1488.78
	16	0.17	-1.84106E-001	2.98893E-006	0.00000E+000	-1.84005E-001	0.00000E+000	9	...........	1488.78
	17	0.18	-1.83111E-001	3.00265E-006	0.00000E+000	-1.83004E-001	0.00000E+000	9	...........	1488.78
	18	0.19	-1.82106E-001	3.03428E-006	0.00000E+000	-1.82004E-001	0.00000E+000	9	...........	1488.78
	19	0.2	-1.81107E-001	3.03584E-006	0.00000E+000	-1.81004E-001	0.00000E+000	9	...........	1488.78
	20	0.21	-1.80105E-001	3.04516E-006	0.00000E+000	-1.80004E-001	0.00000E+000	9	...........	1488.78
	21	0.22	-1.79104E-001	3.05391E-006	0.00000E+000	-1.79003E-001	0.00000E+000	9	...........	1488.78
	22	0.23	-1.78115E-001	3.04209E-006	0.00000E+000	-1.78016E-001	0.00000E+000	9	...........	1488.78
	23	0.24	-1.77114E-001	3.06686E-006	0.00000E+000	-1.77015E-001	0.00000E+000	9	...........	1488.78
	24	0.25	-1.76116E-001	3.07779E-006	0.00000E+000	-1.76015E-001	0.00000E+000	9	...........	1488.78
	25	0.26	-1.75116E-001	3.10016E-006	0.00000E+000	-1.75015E-001	0.00000E+000	9	...........	1488.78
	26	0.27	-1.74114E-001	3.10060E-006	0.00000E+000	-1.74014E-001	0.00000E+000	9	...........	1488.78
	27	0.28	-1.73115E-001	3.10624E-006	0.00000E+000	-1.73014E-001	0.00000E+000	9	...........	1488.78
	28	0.29	-1.72114E-001	3.12403E-006	0.00000E+000	-1.72014E-001	0.00000E+000	9	...........	1488.78
	29	0.3	-1.71113E-001	3.11773E-006	0.00000E+000	-1.71014E-001	0.00000E+000	9	...........	1488.78
	30	0.31	-1.70113E-001	3.11589E-006	0.00000E+000	-1.70013E-001	0.00000E+000	9	...........	1488.78
	31	0.32	-1.69114E-001	3.12632E-006	0.00000E+000	-1.69013E-001	0.00000E+000	9	...........	1488.78
	32	0.33	-1.68112E-001	3.13564E-006	0.00000E+000	-1.68013E-001	0.00000E+000	9	...........	1488.78
	33	0.34	-1.67113E-001	3.13402E-006	0.00000E+000	-1.67013E-001	0.00000E+000	9	...........	1488.78
	34	0.35	-1.66111E-001	3.14629E-006	0.00000E+000	-1.66012E-001	0.00000E+000	9	...........	1488.78
	35	0.36	-1.65112E-001	3.14785E-006	0.00000E+000	-1.65012E-001	0.00000E+000	9	...........	1488.78
	36	0.37	-1.64114E-001	3.15455E-006	0.00000E+000	-1.64012E-001	0.00000E+000	9	...........	1488.78
	37	0.38	-1.63114E-001	3.14283E-006	0.00000E+000	-1.63012E-001	0.00000E+000	9	...........	1488.78
	38	0.39	-1.62112E-001	3.15577E-006	0.00000E+000	-1.62011E-001	0.00000E+000	9	...........	1488.78
	39	0.4	-1.61123E-001	3.11974E-006	0.00000E+000	-1.61023E-001	0.00000E+000	9	...........	1488.78
	40	0.41	-1.60122E-001	3.15611E-006	0.00000E+000	-1.60023E-001	0.00000E+000	9	...........	1488.78
	41	0.42	-1.59119E-001	3.16598E-006	0.00000E+000	-1.59023E-001	0.00000E+000	9	...........	1488.78
	42	0.43	-1.58122E-001	3.17580E-006	0.00000E+000	-1.58023E-001	0.00000E+000	9	...........	1488.78
	43	0.44	-1.57121E-001	3.15209E-006	0.00000E+000	-1.57022E-001	0.00000E+000	9	...........	1488.78
	44	0.45	-1.56122E-001	3.16849E-006	0.00000E+000	-1.56022E-001	0.00000E+000	9	...........	1488.78
	45	0.46	-1.55121E-001	3.16788E-006	0.00000E+000	-1.55022E-001	0.00000E+000	9	...........	1488.78
	46	0.47	-1.54118E-001	3.17167E-006	0.00000E+000	-1.54022E-001	0.00000E+000	9	...........	1488.78
	47	0.48	-1.53120E-001	3.17468E-006	0.00000E+000	-1.53021E-001	0.00000E+000	9	...........	1488.78
	48	0.49	-1.52118E-001	3.17507E-006	0.00000E+000	-1.52021E-001	0.00000E+000	9	...........	1488.78
	49	0.5	-1.51120E-001	3.15968E-006	0.00000E+000	-1.51021E-001	0.00000E+000	9	...........	1488.78
	50	0.51	-1.50119E-001	3.18902E-006	0.00000E+000	-1.50021E-001	0.00000E+000	9	...........	1488.78
	51	0.52	-1.49120E-001	3.16827E-006	0.00000E+000	-1.49020E-001	0.00000E+000	9	...........	1488.78
	52	0.53	-1.48117E-001	3.18562E-006	0.00000E+000	-1.48020E-001	0.00000E+000	9	...........	1488.78
	53	0.54	-1.47118E-001	3.18115E-006	0.00000E+000	-1.47020E-001	0.00000E+000	9	...........	1488.78
	54	0.55	-1.46118E-001	3.17731E-006	0.00000E+000	-1.46019E-001	0.00000E+000	9	...........	1488.78
	55	0.56	-1.45119E-001	3.17240E-006	0.00000E+000	-1.45019E-001	0.00000E+000	9	...........	1488.78
	56	0.57	-1.44129E-001	3.15784E-006	0.00000E+000	-1.44031E-001	0.00000E+000	9	...........	1488.78
	57	0.58	-1.43130E-001	3.16704E-006	0.00000E+000	-1.43031E-001	0.00000E+000	9	...........	1488.78
	58	0.59	-1.42131E-001	3.18160E-006	0.00000E+000	-1.42031E-001	0.00000E+000	9	...........	1488.78
	59	0.6	-1.41128E-001	3.17268E-006	0.00000E+000	-1.41031E-001	0.00000E+000	9	...........	1488.78
	60	0.61	-1.40131E-001	3.19683E-006	0.00000E+000	-1.40030E-001	0.00000E+000	9	...........	1488.78
	61	0.62	-1.39128E-001	3.17044E-006	0.00000E+000	-1.39030E-001	0.00000E+000	9	...........	1488.78
	62	0.63	-1.38128E-001	3.19014E-006	0.00000E+000	-1.38030E-001	0.00000E+000	9	...........	1488.78
	63	0.64	-1.37129E-001	3.17201E-006	0.00000E+000	-1.37030E-001	0.00000E+000	9	...........	1488.78
	64	0.65	-1.36126E-001	3.19248E-006	0.00000E+000	-1.36029E-001	0.00000E+000	9	...........	1488.78
	65	0.66	-1.35127E-001	3.17597E-006	0.00000E+000	-1.35029E-001	0.00000E+000	9	...........	1488.78
	66	0.67	-1.34126E-001	3.18657E-006	0.00000E+000	-1.34029E-001	0.00000E+000	9	...........	1488.78
	67	0.68	-1.33125E-001	3.18986E-006	0.00000E+000	-1.33029E-001	0.00000E+000	9	...........	1488.78
	68	0.69	-1.32125E-001	3.18076E-006	0.00000E+000	-1.32028E-001	0.00000E+000	9	...........	1488.78
	69	0.7	-1.31127E-001	3.17229E-006	0.00000E+000	-1.31028E-001	0.00000E+000	9	...........	1488.78
	70	0.71	-1.30125E-001	3.19337E-006	0.00000E+000	-1.30028E-001	0.00000E+000	9	...........	1488.78
	71	0.72	-1.29126E-001	3.17156E-006	0.00000E+000	-1.29027E-001	0.00000E+000	9	...........	1488.78
	72	0.73	-1.28125E-001	3.18757E-006	0.00000E+000	-1.28027E-001	0.00000E+000	9	...........	1488.78
	73	0.74	-1.27123E-001	3.17870E-006	0.00000E+000	-1.27027E-001	0.00000E+000	9	...........	1488.78
	74	0.75	-1.26136E-001	3.15700E-006	0.00000E+000	-1.26039E-001	0.00000E+000	9	...........	1488.78
	75	0.76	-1.25136E-001	3.17825E-006	0.00000E+000	-1.25039E-001	0.00000E+000	9	...........	1488.78
	76	0.77	-1.24137E-001	3.17998E-006	0.00000E+000	-1.24039E-001	0.00000E+000	9	...........	1488.78
	77	0.78	-1.23136E-001	3.17697E-006	0.00000E+000	-1.23038E-001	0.00000E+000	9	...........	1488.78
	78	0.79	-1.22138E-001	3.18244E-006	0.00000E+000	-1.22038E-001	0.00000E+000	9	...........	1488.78
	79	0.8	-1.21134E-001	3.18818E-006	0.00000E+000	-1.21038E-001	0.00000E+000	9	...........	1488.78
	80	0.81	-1.20133E-001	3.18500E-006	0.00000E+000	-1.20038E-001	0.00000E+000	9	...........	1488.78
	81	0.82	-1.19134E-001	3.17195E-006	0.00000E+000	-1.19037E-001	0.00000E+000	9	...........	1488.78
	82	0.83	-1.18131E-001	3.18807E-006	0.00000E+000	-1.18037E-001	0.00000E+000	9	...........	1488.78
	83	0.84	-1.17133E-001	3.18210E-006	0.00000E+000	-1.17037E-001	0.00000E+000	9	...........	1488.78
	84	0.85	-1.16132E-001	3.19733E-006	0.00000E+000	-1.16036E-001	0.00000E+000	9	...........	1488.78
	85	0.86	-1.15132E-001	3.18461E-006	0.00000E+000	-1.15036E-001	0.00000E+000	9	...........	1488.78
	86	0.87	-1.14130E-001	3.18835E-006	0.00000E+000	-1.14036E-001	0.00000E+000	9	...........	1488.78
	87	0.88	-1.13128E-001	3.18980E-006	0.00000E+000	-1.13036E-001	0.00000E+000	9	...........	1488.78
	88	0.89	-1.12129E-001	3.19092E-006	0.00000E+000	-1.12035E-001	0.00000E+000	9	...........	1488.78
	89	0.9	-1.11131E-001	3.18300E-006	0.00000E+000	-1.11035E-001	0.00000E+000	9	...........	1488.78
	90	0.91	-1.10129E-001	3.19527E-006	0.00000E+000	-1.10035E-001	0.00000E+000	9	...........	1488.78
	91	0.92	-1.09138E-001	3.17005E-006	0.00000E+000	-1.09047E-001	0.00000E+000	9	...........	1488.78
	92	0.93	-1.08141E-001	3.19566E-006	0.00000E+000	-1.08047E-001	0.00000E+000	9	...........	1488.78
	93	0.94	-1.07137E-001	3.18807E-006	0.00000E+000	-1.07047E-001	0.00000E+000	9	...........	1488.78
	94	0.95	-1.06142E-001	3.18244E-006	0.00000E+000	-1.06046E-001	0.00000E+000	9	...........	1488.78
	95	0.96	-1.05139E-001	3.19610E-006	0.00000E+000	-1.05046E-001	0.00000E+000	9	...........	1488.78
	96	0.97	-1.04140E-001	3.19594E-006	0.00000E+000	-1.04046E-001	0.00000E+000	9	...........	1488.78
	97	0.98	-1.03140E-001	3.19426E-006	0.00000E+000	-1.03045E-001	0.00000E+000	9	...........	1488.78
	98	0.99	-1.02138E-001	3.19549E-006	0.00000E+000	-1.02045E-001	0.00000E+000	9	...........	1488.78
	99	1	-1.01135E-001	3.19187E-006	0.00000E+000	-1.01045E-001	0.00000E+000	9	...........	1488.78
	100	1.01	-1.00135E-001	3.19142E-006	0.00000E+000	-1.00045E-001	0.00000E+000	9	...........	1488.78
	101	1.02	-9.91373E-002	3.19460E-006	0.00000E+000	-9.90444E-002	0.00000E+000	9	...........	1488.78
	102	1.03	-9.81384E-002	3.18210E-006	0.00000E+000	-9.80441E-002	0.00000E+000	9	...........	1488.78
	103	1.04	-9.71373E-002	3.20157E-006	0.00000E+000	-9.70439E-002	0.00000E+000	9	...........	1488.78
	104	1.05	-9.61358E-002	3.19806E-006	0.00000E+000	-9.60436E-002	0.00000E+000	9	...........	1488.78
	105	1.06	-9.51340E-002	3.20051E-006	0.00000E+000	-9.50433E-002	0.00000E+000	9	...........	1488.78
	106	1.07	-9.41345E-002	3.19326E-006	0.00000E+000	-9.40431E-002	0.00000E+000	9	...........	1488.78
	107	1.08	-9.31344E-002	3.20085E-006	0.00000E+000	-9.30428E-002	0.00000E+000	9	...........	1488.78
	108	1.09	-9.21345E-002	3.19739E-006	0.00000E+000	-9.20426E-002	0.00000E+000	9	...........	1488.72
	109	1.1	-9.11465E-002	3.17335E-006	0.00000E+000	-9.10548E-002	0.00000E+000	9	...........	1488.69
	110	1.11	-9.01467E-002	3.20291E-006	0.00000E+000	-9.00545E-002	0.00000E+000	9	...........	1488.69
	111	1.12	-8.91458E-002	3.21245E-006	0.00000E+000	-8.90542E-002	0.00000E+000	9	...........	1488.69
	112	1.13	-8.81467E-002	3.20999E-006	0.00000E+000	-8.80540E-002	0.00000E+000	9	...........	1488.69
	113	1.14	-8.71444E-002	3.20615E-006	0.00000E+000	-8.70537E-002	0.00000E+000	9	...........	1488.69
	114	1.15	-8.61476E-002	3.20787E-006	0.00000E+000	-8.60534E-002	0.00000E+000	9	...........	1488.69
	115	1.16	-8.51447E-002	3.21658E-006	0.00000E+000	-8.50532E-002	0.00000E+000	9	...........	1488.69
	116	1.17	-8.41437E-002	3.21853E-006	0.00000E+000	-8.40529E-002	0.00000E+000	9	...........	1488.69
	117	1.18	-8.31422E-002	3.21959E-006	0.00000E+000	-8.30526E-002	0.00000E+000	9	...........	1488.69
	118	1.19	-8.21434E-002	3.21624E-006	0.00000E+000	-8.20524E-002	0.00000E+000	9	...........	1488.69
	119	1.2	-8.11433E-002	3.21686E-006	0.00000E+000	-8.10521E-002	0.00000E+000	9	...........	1488.69
	120	1.21	-8.01438E-002	3.21959E-006	0.00000E+000	-8.00518E-002	0.00000E+000	9	...........	1488.69
	121	1.22	-7.91440E-002	3.21423E-006	0.00000E+000	-7.90516E-002	0.00000E+000	9	...........	1488.69
	122	1.23	-7.81429E-002	3.22522E-006	0.00000E+000	-7.80513E-002	0.00000E+000	9	...........	1488.69
	123	1.24	-7.71431E-002	3.22751E-006	0.00000E+000	-7.70510E-002	0.00000E+000	9	...........	1488.69
	124	1.25	-7.61412E-002	3.22863E-006	0.00000E+000	-7.60508E-002	0.00000E+000	9	...........	1488.69
	125	1.26	-7.51408E-002	3.22829E-006	0.00000E+000	-7.50505E-002	0.00000E+000	9	...........	1488.69
	126	1.27	-7.41524E-002	3.21870E-006	0.00000E+000	-7.40627E-002	0.00000E+000	9	...........	1488.69
	127	1.28	-7.31510E-002	3.22522E-006	0.00000E+000	-7.30625E-002	0.00000E+000	9	...........	1488.69
	128	1.29	-7.21517E-002	3.22573E-006	0.00000E+000	-7.20622E-002	0.00000E+000	9	...........	1488.69
	129	1.3	-7.11519E-002	3.22606E-006	0.00000E+000	-7.10619E-002	0.00000E+000	9	...........	1488.69
	130	1.31	-7.01508E-002	3.23024E-006	0.00000E+000	-7.00617E-002	0.00000E+000	9	...........	1488.69
	131	1.32	-6.91495E-002	3.23744E-006	0.00000E+000	-6.90614E-002	0.00000E+000	9	...........	1488.69
	132	1.33	-6.81485E-002	3.23097E-006	0.00000E+000	-6.80611E-002	0.00000E+000	9	...........	1488.69
	133	1.34	-6.71494E-002	3.23365E-006	0.00000E+000	-6.70609E-002	0.00000E+000	9	...........	1488.69
	134	1.35	-6.61493E-002	3.24012E-006	0.00000E+000	-6.60606E-002	0.00000E+000	9	...........	1488.69
	135	1.36	-6.51503E-002	3.23404E-006	0.00000E+000	-6.50603E-002	0.00000E+000	9	...........	1488.69
	136	1.37	-6.41460E-002	3.24882E-006	0.00000E+000	-6.40601E-002	0.00000E+000	9	...........	1488.69
	137	1.38	-6.31469E-002	3.25122E-006	0.00000E+000	-6.30598E-002	0.00000E+000	9	...........	1488.69
	138	1.39	-6.21472E-002	3.24988E-006	0.00000E+000	-6.20595E-002	0.00000E+000	9	...........	1488.69
	139	1.4	-6.11467E-002	3.24056E-006	0.00000E+000	-6.10593E-002	0.00000E+000	9	...........	1488.69
	140	1.41	-6.01443E-002	3.25814E-006	0.00000E+000	-6.00590E-002	0.00000E+000	9	...........	1488.69
	141	1.42	-5.91448E-002	3.25769E-006	0.00000E+000	-5.90587E-002	0.00000E+000	9	...........	1488.69
	142	1.43	-5.81451E-002	3.26723E-006	0.00000E+000	-5.80585E-002	0.00000E+000	9	...........	1488.69
	143	1.44	-5.71570E-002	3.23683E-006	0.00000E+000	-5.70707E-002	0.00000E+000	9	...........	1488.69
	144	1.45	-5.61541E-002	3.26410E-006	0.00000E+000	-5.60704E-002	0.00000E+000	9	...........	1488.69
	145	1.46	-5.51560E-002	3.25657E-006	0.00000E+000	-5.50702E-002	0.00000E+000	9	...........	1488.69
	146	1.47	-5.41565E-002	3.27230E-006	0.00000E+000	-5.40699E-002	0.00000E+000	9	...........	1488.69
	147	1.48	-5.31557E-002	3.27258E-006	0.00000E+000	-5.30696E-002	0.00000E+000	9	...........	1488.69
	148	1.49	-5.21551E-002	3.27476E-006	0.00000E+000	-5.20694E-002	0.00000E+000	9	...........	1488.69
	149	1.5	-5.11512E-002	3.28441E-006	0.00000E+000	-5.10691E-002	0.00000E+000	9	...........	1488.69
	150	1.51	-5.01496E-002	3.28262E-006	0.00000E+000	-5.00688E-002	0.00000E+000	9	...........	1488.69
	151	1.52	-4.91487E-002	3.28826E-006	0.00000E+000	-4.90686E-002	0.00000E+000	9	...........	1488.69
	152	1.53	-4.81513E-002	3.29663E-006	0.00000E+000	-4.80683E-002	0.00000E+000	9	...........	1488.69
	153	1.54	-4.71523E-002	3.28486E-006	0.00000E+000	-4.70680E-002	0.00000E+000	9	...........	1488.69
	154	1.55	-4.61503E-002	3.29875E-006	0.00000E+000	-4.60678E-002	0.00000E+000	9	...........	1488.69
	155	1.56	-4.51513E-002	3.29718E-006	0.00000E+000	-4.50675E-002	0.00000E+000	9	...........	1488.69
	156	1.57	-4.41498E-002	3.32106E-006	0.00000E+000	-4.40672E-002	0.00000E+000	9	...........	1488.69
	157	1.58	-4.31466E-002	3.31492E-006	0.00000E+000	-4.30670E-002	0.00000E+000	9	...........	1488.69
	158	1.59	-4.21479E-002	3.31247E-006	0.00000E+000	-4.20667E-002	0.00000E+000	9	...........	1488.69
	159	1.6	-4.11467E-002	3.31503E-006	0.00000E+000	-4.10664E-002	0.00000E+000	9	...........	1488.69
	160	1.61	-4.01482E-002	3.32876E-006	0.00000E+000	-4.00662E-002	0.00000E+000	9	...........	1488.69
	161	1.62	-3.91587E-002	3.30516E-006	0.00000E+000	-3.90784E-002	0.00000E+000	9	...........	1488.69
	162	1.63	-3.81566E-002	3.33640E-006	0.00000E+000	-3.80781E-002	0.00000E+000	9	...........	1488.69
	163	1.64	-3.71552E-002	3.34042E-006	0.00000E+000	-3.70779E-002	0.00000E+000	9	...........	1488.69
	164	1.65	-3.61538E-002	3.35375E-006	0.00000E+000	-3.60776E-002	0.00000E+000	9	...........	1488.69
	165	1.66	-3.51572E-002	3.34627E-006	0.00000E+000	-3.50773E-002	0.00000E+000	9	...........	1488.69
	166	1.67	-3.41544E-002	3.36535E-006	0.00000E+000	-3.40771E-002	0.00000E+000	9	...........	1488.69
	167	1.68	-3.31537E-002	3.35871E-006	0.00000E+000	-3.30768E-002	0.00000E+000	9	...........	1488.69
	168	1.69	-3.21537E-002	3.36831E-006	0.00000E+000	-3.20765E-002	0.00000E+000	9	...........	1488.69
	169	1.7	-3.11508E-002	3.38554E-006	0.00000E+000	-3.10763E-002	0.00000E+000	9	...........	1488.69
	170	1.71	-3.01513E-002	3.37985E-006	0.00000E+000	-3.00760E-002	0.00000E+000	9	...........	1488.69
	171	1.72	-2.91528E-002	3.38275E-006	0.00000E+000	-2.90757E-002	0.00000E+000	9	...........	1488.69
	172	1.73	-2.81535E-002	3.38130E-006	0.00000E+000	-2.80754E-002	0.00000E+000	9	...........	1488.69
	173	1.74	-2.71540E-002	3.39179E-006	0.00000E+000	-2.70752E-002	0.00000E+000	9	...........	1488.69
	174	1.75	-2.61541E-002	3.39586E-006	0.00000E+000	-2.60749E-002	0.00000E+000	9	...........	1488.69
	175	1.76	-2.51502E-002	3.39977E-006	0.00000E+000	-2.50746E-002	0.00000E+000	9	...........	1488.69
	176	1.77	-2.41494E-002	3.39798E-006	0.00000E+000	-2.40744E-002	0.00000E+000	9	...........	1488.69
	177	1.78	-2.31478E-002	3.41109E-006	0.00000E+000	-2.30741E-002	0.00000E+000	9	...........	1488.69
	178	1.79	-2.21619E-002	3.38694E-006	0.00000E+000	-2.20864E-002	0.00000E+000	9	...........	1488.69
	179	1.8	-2.11623E-002	3.40814E-006	0.00000E+000	-2.10861E-002	0.00000E+000	9	...........	1488.69
	180	1.81	-2.01600E-002	3.42186E-006	0.00000E+000	-2.00858E-002	0.00000E+000	9	...........	1488.69
	181	1.82	-1.91573E-002	3.43078E-006	0.00000E+000	-1.90855E-002	0.00000E+000	9	...........	1488.69
	182	1.83	-1.81563E-002	3.44016E-006	0.00000E+000	-1.80853E-002	0.00000E+000	9	...........	1488.69
	183	1.84	-1.71544E-002	3.44534E-006	0.00000E+000	-1.70850E-002	0.00000E+000	9	...........	1488.69
	184	1.85	-1.61564E-002	3.45120E-006	0.00000E+000	-1.60847E-002	0.00000E+000	9	...........	1488.69
	185	1.86	-1.51559E-002	3.45036E-006	0.00000E+000	-1.50845E-002	0.00000E+000	9	...........	1488.69
	186	1.87	-1.41553E-002	3.45996E-006	0.00000E+000	-1.40842E-002	0.00000E+000	9	...........	1488.69
	187	1.88	-1.31548E-002	3.46241E-006	0.00000E+000	-1.30839E-002	0.00000E+000	9	...........	1488.69
	188	1.89	-1.21533E-002	3.47998E-006	0.00000E+000	-1.20837E-002	0.00000E+000	9	...........	1488.69
	189	1.9	-1.11527E-002	3.48077E-006	0.00000E+000	-1.10834E-002	0.00000E+000	9	...........	1488.69
	190	1.91	-1.01504E-002	3.48729E-006	0.00000E+000	-1.00831E-002	0.00000E+000	9	...........	1488.69
	191	1.92	-9.15138E-003	3.48897E-006	0.00000E+000	-9.08288E-003	0.00000E+000	9	...........	1488.69
	192	1.93	-8.15217E-003	3.50274E-006	0.00000E+000	-8.08261E-003	0.00000E+000	9	...........	1488.69
	193	1.94	-7.15108E-003	3.50230E-006	0.00000E+000	-7.08234E-003	0.00000E+000	9	...........	1488.69
	194	1.95	-6.14999E-003	3.52350E-006	0.00000E+000	-6.08207E-003	0.00000E+000	9	...........	1488.69
	195	1.96	-5.15996E-003	3.49917E-006	0.00000E+000	-5.09430E-003	0.00000E+000	9	...........	1488.69
	196	1.97	-4.15880E-003	3.53571E-006	0.00000E+000	-4.09404E-003	0.00000E+000	9	...........	1488.69
	197	1.98	-3.16171E-003	3.54001E-006	0.00000E+000	-3.09377E-003	0.00000E+000	9	...........	1488.69
	198	1.99	-2.16146E-003	3.54486E-006	0.00000E+000	-2.09350E-003	0.00000E+000	9	...........	1488.69
	199	2	-1.15893E-003	3.56277E-006	0.00000E+000	-1.09324E-003	0.00000E+000	9	...........	1488.69
	200	2.01	-1.57944E-004	3.56834E-006	0.00000E+000	-9.29683E-005	0.00000E+000	9	...........	1488.69
	201	2.02	-1.11388E-003	-7.26277E-007	0.00000E+000	-1.09324E-003	0.00000E+000	9	...........	1488.69
	202	2.03	-2.11669E-003	-9.15493E-007	0.00000E+000	-2.09350E-003	0.00000E+000	9	...........	1488.69
	203	2.04	-3.11720E-003	-1.01774E-006	0.00000E+000	-3.09377E-003	0.00000E+000	9	...........	1488.69
	204	2.05	-4.11311E-003	-1.09740E-006	0.00000E+000	-4.09404E-003	0.00000E+000	9	...........	1488.69
	205	2.06	-5.11356E-003	-1.16786E-006	0.00000E+000	-5.09430E-003	0.00000E+000	9	...........	1488.69
	206	2.07	-6.10479E-003	-1.18916E-006	0.00000E+000	-6.08207E-003	0.00000E+000	9	...........	1488.69
	207	2.08	-7.10531E-003	-1.27111E-006	0.00000E+000	-7.08234E-003	0.00000E+000	9	...........	1488.69
	208	2.09	-8.10658E-003	-1.30045E-006	0.00000E+000	-8.08261E-003	0.00000E+000	9	...........	1488.69
	209	2.1	-9.10492E-003	-1.33169E-006	0.00000E+000	-9.08288E-003	0.00000E+000	9	...........	1488.69
	210	2.11	-1.01070E-002	-1.36248E-006	0.00000E+000	-1.00831E-002	0.00000E+000	9	...........	1488.69
	211	2.12	-1.11069E-002	-1.39171E-006	0.00000E+000	-1.10834E-002	0.00000E+000	9	...........	1488.69
	212	2.13	-1.21088E-002	-1.41648E-006	0.00000E+000	-1.20837E-002	0.00000E+000	9	...........	1488.69
	213	2.14	-1.31092E-002	-1.44147E-006	0.00000E+000	-1.30839E-002	0.00000E+000	9	...........	1488.69
	214	2.15	-1.41091E-002	-1.45988E-006	0.00000E+000	-1.40842E-002	0.00000E+000	9	...........	1488.69
	215	2.16	-1.51098E-002	-1.48437E-006	0.00000E+000	-1.50845E-002	0.00000E+000	9	...........	1488.69
	216	2.17	-1.61104E-002	-1.50646E-006	0.00000E+000	-1.60847E-002	0.00000E+000	9	...........	1488.69
	217	2.18	-1.71099E-002	-1.52676E-006	0.00000E+000	-1.70850E-002	0.00000E+000	9	...........	1488.69
	218	2.19	-1.81091E-002	-1.52793E-006	0.00000E+000	-1.80853E-002	0.00000E+000	9	...........	1488.69
	219	2.2	-1.91131E-002	-1.56414E-006	0.00000E+000	-1.90855E-002	0.00000E+000	9	...........	1488.69
	220	2.21	-2.01131E-002	-1.57474E-006	0.00000E+000	-2.00858E-002	0.00000E+000	9	...........	1488.69
	221	2.22	-2.11149E-002	-1.58082E-006	0.00000E+000	-2.10861E-002	0.00000E+000	9	...........	1488.69
	222	2.23	-2.21151E-002	-1.59493E-006	0.00000E+000	-2.20864E-002	0.00000E+000	9	...........	1488.69
	223	2.24	-2.31030E-002	-1.58266E-006	0.00000E+000	-2.30741E-002	0.00000E+000	9	...........	1488.69
	224	2.25	-2.41024E-002	-1.63136E-006	0.00000E+000	-2.40744E-002	0.00000E+000	9	...........	1488.69
	225	2.26	-2.51045E-002	-1.63905E-006	0.00000E+000	-2.50746E-002	0.00000E+000	9	...........	1488.69
	226	2.27	-2.61076E-002	-1.65194E-006	0.00000E+000	-2.60749E-002	0.00000E+000	9	...........	1488.69
	227	2.28	-2.71079E-002	-1.66098E-006	0.00000E+000	-2.70752E-002	0.00000E+000	9	...........	1488.69
	228	2.29	-2.81067E-002	-1.67029E-006	0.00000E+000	-2.80754E-002	0.00000E+000	9	...........	1488.69
	229	2.3	-2.91086E-002	-1.68463E-006	0.00000E+000	-2.90757E-002	0.00000E+000	9	...........	1488.69
	230	2.31	-3.01088E-002	-1.69088E-006	0.00000E+000	-3.00760E-002	0.00000E+000	9	...........	1488.69
	231	2.32	-3.11074E-002	-1.70689E-006	0.00000E+000	-3.10763E-002	0.00000E+000	9	...........	1488.69
	232	2.33	-3.21093E-002	-1.72317E-006	0.00000E+000	-3.20765E-002	0.00000E+000	9	...........	1488.69
	233	2.34	-3.31119E-002	-1.72585E-006	0.00000E+000	-3.30768E-002	0.00000E+000	9	...........	1488.69
	234	2.35	-3.41118E-002	-1.72820E-006	0.00000E+000	-3.40771E-002	0.00000E+000	9	...........	1488.69
	235	2.36	-3.51125E-002	-1.75174E-006	0.00000E+000	-3.50773E-002	0.00000E+000	9	...........	1488.69
	236	2.37	-3.61123E-002	-1.73980E-006	0.00000E+000	-3.60776E-002	0.00000E+000	9	...........	1488.69
	237	2.38	-3.71107E-002	-1.77422E-006	0.00000E+000	-3.70779E-002	0.00000E+000	9	...........	1488.69
	238	2.39	-3.81134E-002	-1.77734E-006	0.00000E+000	-3.80781E-002	0.00000E+000	9	...........	1488.69
	239	2.4	-3.91153E-002	-1.78309E-006	0.00000E+000	-3.90784E-002	0.00000E+000	9	...........	1488.69
	240	2.41	-4.01041E-002	-1.76992E-006	0.00000E+000	-4.00662E-002	0.00000E+000	9	...........	1488.69
	241	2.42	-4.11021E-002	-1.80004E-006	0.00000E+000	-4.10664E-002	0.00000E+000	9	...........	1488.69
	242	2.43	-4.21045E-002	-1.80389E-006	0.00000E+000	-4.20667E-002	0.00000E+000	9	...........	1488.69
	243	2.44	-4.31025E-002	-1.82001E-006	0.00000E+000	-4.30670E-002	0.00000E+000	9	...........	1488.69
	244	2.45	-4.41059E-002	-1.82565E-006	0.00000E+000	-4.40672E-002	0.00000E+000	9	...........	1488.69
	245	2.46	-4.51064E-002	-1.84021E-006	0.00000E+000	-4.50675E-002	0.00000E+000	9	...........	1488.69
	246	2.47	-4.61075E-002	-1.83792E-006	0.00000E+000	-4.60678E-002	0.00000E+000	9	...........	1488.69
	247	2.48	-4.71097E-002	-1.85666E-006	0.00000E+000	-4.70680E-002	0.00000E+000	9	...........	1488.69
	248	2.49	-4.81077E-002	-1.85120E-006	0.00000E+000	-4.80683E-002	0.00000E+000	9	...........	1488.69
	249	2.5	-4.91064E-002	-1.86196E-006	0.00000E+000	-4.90686E-002	0.00000E+000	9	...........	1488.69
	250	2.51	-5.01062E-002	-1.87602E-006	0.00000E+000	-5.00688E-002	0.00000E+000	9	...........	1488.69
	251	2.52	-5.11072E-002	-1.88389E-006	0.00000E+000	-5.10691E-002	0.00000E+000	9	...........	1488.69
	252	2.53	-5.21118E-002	-1.89521E-006	0.00000E+000	-5.20694E-002	0.00000E+000	9	...........	1488.69
	253	2.54	-5.31111E-002	-1.90508E-006	0.00000E+000	-5.30696E-002	0.00000E+000	9	...........	1488.69
	254	2.55	-5.41125E-002	-1.89778E-006	0.00000E+000	-5.40699E-002	0.00000E+000	9	...........	1488.69
	255	2.56	-5.51117E-002	-1.92411E-006	0.00000E+000	-5.50702E-002	0.00000E+000	9	...........	1488.69
	256	2.57	-5.61113E-002	-1.92182E-006	0.00000E+000	-5.60704E-002	0.00000E+000	9	...........	1488.69
	257	2.58	-5.71142E-002	-1.93839E-006	0.00000E+000	-5.70707E-002	0.00000E+000	9	...........	1488.69
	258	2.59	-5.81037E-002	-1.90241E-006	0.00000E+000	-5.80585E-002	0.00000E+000	9	...........	1488.69
	259	2.6	-5.91013E-002	-1.94659E-006	0.00000E+000	-5.90587E-002	0.00000E+000	9	...........	1488.69
	260	2.61	-6.01030E-002	-1.94659E-006	0.00000E+000	-6.00590E-002	0.00000E+000	9	...........	1488.69
	261	2.62	-6.11015E-002	-1.96527E-006	0.00000E+000	-6.10593E-002	0.00000E+000	9	...........	1488.69
	262	2.63	-6.21049E-002	-1.96310E-006	0.00000E+000	-6.20595E-002	0.00000E+000	9	...........	1488.69
	263	2.64	-6.31058E-002	-1.97816E-006	0.00000E+000	-6.30598E-002	0.00000E+000	9	...........	1488.69
	264	2.65	-6.41036E-002	-1.98446E-006	0.00000E+000	-6.40601E-002	0.00000E+000	9	...........	1488.69
	265	2.66	-6.51052E-002	-1.98457E-006	0.00000E+000	-6.50603E-002	0.00000E+000	9	...........	1488.69
	266	2.67	-6.61059E-002	-1.99473E-006	0.00000E+000	-6.60606E-002	0.00000E+000	9	...........	1488.69
	267	2.68	-6.71087E-002	-2.00164E-006	0.00000E+000	-6.70609E-002	0.00000E+000	9	...........	1488.69
	268	2.69	-6.81062E-002	-2.00951E-006	0.00000E+000	-6.80611E-002	0.00000E+000	9	...........	1488.69
	269	2.7	-6.91070E-002	-2.01174E-006	0.00000E+000	-6.90614E-002	0.00000E+000	9	...........	1488.69
	270	2.71	-7.01079E-002	-2.02245E-006	0.00000E+000	-7.00617E-002	0.00000E+000	9	...........	1488.69
	271	2.72	-7.11088E-002	-2.02619E-006	0.00000E+000	-7.10619E-002	0.00000E+000	9	...........	1488.69
	272	2.73	-7.21086E-002	-2.03885E-006	0.00000E+000	-7.20622E-002	0.00000E+000	9	...........	1488.69
	273	2.74	-7.31082E-002	-2.04103E-006	0.00000E+000	-7.30625E-002	0.00000E+000	9	...........	1488.69
	274	2.75	-7.41089E-002	-2.05497E-006	0.00000E+000	-7.40627E-002	0.00000E+000	9	...........	1488.69
	275	2.76	-7.50966E-002	-2.02636E-006	0.00000E+000	-7.50505E-002	0.00000E+000	9	...........	1488.69
	276	2.77	-7.60972E-002	-2.06992E-006	0.00000E+000	-7.60508E-002	0.00000E+000	9	...........	1488.69
	277	2.78	-7.70982E-002	-2.07026E-006	0.00000E+000	-7.70510E-002	0.00000E+000	9	...........	1488.69
	278	2.79	-7.81012E-002	-2.08420E-006	0.00000E+000	-7.80513E-002	0.00000E+000	9	...........	1488.69
	279	2.8	-7.91003E-002	-2.08102E-006	0.00000E+000	-7.90516E-002	0.00000E+000	9	...........	1488.69
	280	2.81	-8.01018E-002	-2.09330E-006	0.00000E+000	-8.00518E-002	0.00000E+000	9	...........	1488.69
	281	2.82	-8.11011E-002	-2.09430E-006	0.00000E+000	-8.10521E-002	0.00000E+000	9	...........	1488.69
	282	2.83	-8.21000E-002	-2.10239E-006	0.00000E+000	-8.20524E-002	0.00000E+000	9	...........	1488.69
	283	2.84	-8.30991E-002	-2.11750E-006	0.00000E+000	-8.30526E-002	0.00000E+000	9	...........	1488.69
	284	2.85	-8.41005E-002	-2.10440E-006	0.00000E+000	-8.40529E-002	0.00000E+000	9	...........	1488.69
	285	2.86	-8.51019E-002	-2.13597E-006	0.00000E+000	-8.50532E-002	0.00000E+000	9	...........	1488.69
	286	2.87	-8.61022E-002	-2.13095E-006	0.00000E+000	-8.60534E-002	0.00000E+000	9	...........	1488.69
	287	2.88	-8.71018E-002	-2.13759E-006	0.00000E+000	-8.70537E-002	0.00000E+000	9	...........	1488.69
	288	2.89	-8.80996E-002	-2.14612E-006	0.00000E+000	-8.80540E-002	0.00000E+000	9	...........	1488.69
	289	2.9	-8.91013E-002	-2.16252E-006	0.00000E+000	-8.90542E-002	0.00000E+000	9	...........	1488.69
	290	2.91	-9.01005E-002	-2.16208E-006	0.00000E+000	-9.00545E-002	0.00000E+000	9	...........	1488.69
	291	2.92	-9.11022E-002	-2.16793E-006	0.00000E+000	-9.10548E-002	0.00000E+000	9	...........	1488.69
	292	2.93	-9.20896E-002	-2.14462E-006	0.00000E+000	-9.20426E-002	0.00000E+000	9	...........	1488.69
	293	2.94	-9.30903E-002	-2.18818E-006	0.00000E+000	-9.30428E-002	0.00000E+000	9	...........	1488.69
	294	2.95	-9.40897E-002	-2.19008E-006	0.00000E+000	-9.40431E-002	0.00000E+000	9	...........	1488.69
	295	2.96	-9.50903E-002	-2.20023E-006	0.00000E+000	-9.50433E-002	0.00000E+000	9	...........	1488.69
	296	2.97	-9.60933E-002	-2.20771E-006	0.00000E+000	-9.60436E-002	0.00000E+000	9	...........	1488.69
	297	2.98	-9.70934E-002	-2.20966E-006	0.00000E+000	-9.70439E-002	0.00000E+000	9	...........	1488.69
	298	2.99	-9.80940E-002	-2.21925E-006	0.00000E+000	-9.80441E-002	0.00000E+000	9	...........	1488.69
	299	3	-9.90950E-002	-2.23532E-006	0.00000E+000	-9.90444E-002	0.00000E+000	9	...........	1488.69
	300	3.01	-1.00092E-001	-2.21897E-006	0.00000E+000	-1.00045E-001	0.00000E+000	9	...........	1488.69
	301	3.02	-1.01092E-001	-2.24776E-006	0.00000E+000	-1.01045E-001	0.00000E+000	9	...........	1488.69
	302	3.03	-1.02095E-001	-2.24720E-006	0.00000E+000	-1.02045E-001	0.00000E+000	9	...........	1488.69
	303	3.04	-1.03097E-001	-2.26003E-006	0.00000E+000	-1.03045E-001	0.00000E+000	9	...........	1488.69
	304	3.05	-1.04096E-001	-2.26009E-006	0.00000E+000	-1.04046E-001	0.00000E+000	9	...........	1488.69
	305	3.06	-1.05096E-001	-2.27688E-006	0.00000E+000	-1.05046E-001	0.00000E+000	9	...........	1488.69
	306	3.07	-1.06096E-001	-2.27704E-006	0.00000E+000	-1.06046E-001	0.00000E+000	9	...........	1488.69
	307	3.08	-1.07093E-001	-2.28725E-006	0.00000E+000	-1.07047E-001	0.00000E+000	9	...........	1488.69
	308	3.09	-1.08096E-001	-2.29662E-006	0.00000E+000	-1.08047E-001	0.00000E+000	9	...........	1488.89
	309	3.1	-1.09096E-001	-2.31269E-006	0.00000E+000	-1.09047E-001	0.00000E+000	9	...........	1488.97
	310	3.11	-1.10084E-001	-2.28100E-006	0.00000E+000	-1.10035E-001	0.00000E+000	9	...........	1488.97
	311	3.12	-1.11086E-001	-2.33015E-006	0.00000E+000	-1.11035E-001	0.00000E+000	9	...........	1488.97
	312	3.13	-1.12085E-001	-2.31883E-006	0.00000E+000	-1.12035E-001	0.00000E+000	9	...........	1488.97
	313	3.14	-1.13083E-001	-2.34432E-006	0.00000E+000	-1.13036E-001	0.00000E+000	9	...........	1488.97
	314	3.15	-1.14085E-001	-2.34499E-006	0.00000E+000	-1.14036E-001	0.00000E+000	9	...........	1488.97
	315	3.16	-1.15087E-001	-2.34995E-006	0.00000E+000	-1.15036E-001	0.00000E+000	9	...........	1488.97
	316	3.17	-1.16089E-001	-2.36139E-006	0.00000E+000	-1.16036E-001	0.00000E+000	9	...........	1488.97
	317	3.18	-1.17088E-001	-2.36864E-006	0.00000E+000	-1.17037E-001	0.00000E+000	9	...........	1488.97
	318	3.19	-1.18086E-001	-2.37634E-006	0.00000E+000	-1.18037E-001	0.00000E+000	9	...........	1488.97
	319	3.2	-1.19088E-001	-2.38459E-006	0.00000E+000	-1.19037E-001	0.00000E+000	9	...........	1488.97
	320	3.21	-1.20087E-001	-2.38978E-006	0.00000E+000	-1.20038E-001	0.00000E+000	9	...........	1488.97
	321	3.22	-1.21089E-001	-2.40189E-006	0.00000E+000	-1.21038E-001	0.00000E+000	9	...........	1488.97
	322	3.23	-1.22091E-001	-2.39424E-006	0.00000E+000	-1.22038E-001	0.00000E+000	9	...........	1488.97
	323	3.24	-1.23090E-001	-2.43084E-006	0.00000E+000	-1.23038E-001	0.00000E+000	9	...........	1488.97
	324	3.25	-1.24091E-001	-2.42175E-006	0.00000E+000	-1.24039E-001	0.00000E+000	9	...........	1488.97
	325	3.26	-1.25090E-001	-2.42810E-006	0.00000E+000	-1.25039E-001	0.00000E+000	9	...........	1488.97
	326	3.27	-1.26092E-001	-2.43686E-006	0.00000E+000	-1.26039E-001	0.00000E+000	9	...........	1488.97
	327	3.28	-1.27078E-001	-2.42431E-006	0.00000E+000	-1.27027E-001	0.00000E+000	9	...........	1488.97
	328	3.29	-1.28078E-001	-2.45404E-006	0.00000E+000	-1.28027E-001	0.00000E+000	9	...........	1488.97
	329	3.3	-1.29083E-001	-2.47083E-006	0.00000E+000	-1.29027E-001	0.00000E+000	9	...........	1488.97
	330	3.31	-1.30080E-001	-2.47937E-006	0.00000E+000	-1.30028E-001	0.00000E+000	9	...........	1488.97
	331	3.32	-1.31082E-001	-2.48997E-006	0.00000E+000	-1.31028E-001	0.00000E+000	9	...........	1488.97
	332	3.33	-1.32078E-001	-2.49069E-006	0.00000E+000	-1.32028E-001	0.00000E+000	9	...........	1488.97
	333	3.34	-1.33081E-001	-2.50938E-006	0.00000E+000	-1.33029E-001	0.00000E+000	9	...........	1488.97
	334	3.35	-1.34083E-001	-2.51948E-006	0.00000E+000	-1.34029E-001	0.00000E+000	9	...........	1488.97
	335	3.36	-1.35083E-001	-2.53041E-006	0.00000E+000	-1.35029E-001	0.00000E+000	9	...........	1488.97
	336	3.37	-1.36084E-001	-2.53928E-006	0.00000E+000	-1.36029E-001	0.00000E+000	9	...........	1488.97
	337	3.38	-1.37084E-001	-2.53878E-006	0.00000E+000	-1.37030E-001	0.00000E+000	9	...........	1488.97
	338	3.39	-1.38085E-001	-2.54966E-006	0.00000E+000	-1.38030E-001	0.00000E+000	9	...........	1488.97
	339	3.4	-1.39087E-001	-2.56360E-006	0.00000E+000	-1.39030E-001	0.00000E+000	9	...........	1488.97
	340	3.41	-1.40087E-001	-2.57604E-006	0.00000E+000	-1.40030E-001	0.00000E+000	9	...........	1488.97
	341	3.42	-1.41086E-001	-2.58234E-006	0.00000E+000	-1.41031E-001	0.00000E+000	9	...........	1488.97
	342	3.43	-1.42088E-001	-2.59874E-006	0.00000E+000	-1.42031E-001	0.00000E+000	9	...........	1488.97
	343	3.44	-1.43088E-001	-2.59847E-006	0.00000E+000	-1.43031E-001	0.00000E+000	9	...........	1488.97
	344	3.45	-1.44088E-001	-2.61375E-006	0.00000E+000	-1.44031E-001	0.00000E+000	9	...........	1488.97
	345	3.46	-1.45075E-001	-2.59484E-006	0.00000E+000	-1.45019E-001	0.00000E+000	9	...........	1488.97
	346	3.47	-1.46076E-001	-2.63813E-006	0.00000E+000	-1.46019E-001	0.00000E+000	9	...........	1488.97
	347	3.48	-1.47076E-001	-2.65576E-006	0.00000E+000	-1.47020E-001	0.00000E+000	9	...........	1488.97
	348	3.49	-1.48076E-001	-2.65531E-006	0.00000E+000	-1.48020E-001	0.00000E+000	9	...........	1488.97
	349	3.5	-1.49075E-001	-2.68114E-006	0.00000E+000	-1.49020E-001	0.00000E+000	9	...........	1488.97
	350	3.51	-1.50079E-001	-2.68019E-006	0.00000E+000	-1.50021E-001	0.00000E+000	9	...........	1488.97
	351	3.52	-1.51077E-001	-2.69346E-006	0.00000E+000	-1.51021E-001	0.00000E+000	9	...........	1488.97
	352	3.53	-1.52073E-001	-2.69893E-006	0.00000E+000	-1.52021E-001	0.00000E+000	9	...........	1488.97
	353	3.54	-1.53075E-001	-2.71371E-006	0.00000E+000	-1.53021E-001	0.00000E+000	9	...........	1488.97
	354	3.55	-1.54076E-001	-2.73285E-006	0.00000E+000	-1.54022E-001	0.00000E+000	9	...........	1488.97
	355	3.56	-1.55078E-001	-2.74724E-006	0.00000E+000	-1.55022E-001	0.00000E+000	9	...........	1488.97
	356	3.57	-1.56079E-001	-2.73976E-006	0.00000E+000	-1.56022E-001	0.00000E+000	9	...........	1488.97
	357	3.58	-1.57077E-001	-2.77312E-006	0.00000E+000	-1.57022E-001	0.00000E+000	9	...........	1488.97
	358	3.59	-1.58076E-001	-2.76079E-006	0.00000E+000	-1.58023E-001	0.00000E+000	9	...........	1488.97
	359	3.6	-1.59076E-001	-2.79560E-006	0.00000E+000	-1.59023E-001	0.00000E+000	9	...........	1488.97
	360	3.61	-1.60078E-001	-2.79432E-006	0.00000E+000	-1.60023E-001	0.00000E+000	9	...........	1488.97
	361	3.62	-1.61080E-001	-2.81987E-006	0.00000E+000	-1.61023E-001	0.00000E+000	9	...........	1488.97
	362	3.63	-1.62068E-001	-2.77563E-006	0.00000E+000	-1.62011E-001	0.00000E+000	9	...........	1488.97
	363	3.64	-1.63070E-001	-2.84625E-006	0.00000E+000	-1.63012E-001	0.00000E+000	9	...........	1488.97
	364	3.65	-1.64069E-001	-2.82969E-006	0.00000E+000	-1.64012E-001	0.00000E+000	9	...........	1488.97
	365	3.66	-1.65067E-001	-2.85395E-006	0.00000E+000	-1.65012E-001	0.00000E+000	9	...........	1488.97
	366	3.67	-1.66067E-001	-2.87158E-006	0.00000E+000	-1.66012E-001	0.00000E+000	9	...........	1488.97
	367	3.68	-1.67069E-001	-2.89211E-006	0.00000E+000	-1.67013E-001	0.00000E+000	9	...........	1488.97
	368	3.69	-1.68069E-001	-2.90131E-006	0.00000E+000	-1.68013E-001	0.00000E+000	9	...........	1488.97
	369	3.7	-1.69068E-001	-2.92290E-006	0.00000E+000	-1.69013E-001	0.00000E+000	9	...........	1488.97
	370	3.71	-1.70071E-001	-2.91794E-006	0.00000E+000	-1.70013E-001	0.00000E+000	9	...........	1488.97
	371	3.72	-1.71070E-001	-2.95274E-006	0.00000E+000	-1.71014E-001	0.00000E+000	9	...........	1488.97
	372	3.73	-1.72071E-001	-2.95397E-006	0.00000E+000	-1.72014E-001	0.00000E+000	9	...........	1488.97
	373	3.74	-1.73071E-001	-2.96903E-006	0.00000E+000	-1.73014E-001	0.00000E+000	9	...........	1488.97
	374	3.75	-1.74071E-001	-2.98147E-006	0.00000E+000	-1.74014E-001	0.00000E+000	9	...........	1488.97
	375	3.76	-1.75073E-001	-3.01321E-006	0.00000E+000	-1.75015E-001	0.00000E+000	9	...........	1488.97
	376	3.77	-1.76075E-001	-3.01913E-006	0.00000E+000	-1.76015E-001	0.00000E+000	9	...........	1488.97
	377	3.78	-1.77070E-001	-3.03045E-006	0.00000E+000	-1.77015E-001	0.00000E+000	9	...........	1488.97
	378	3.79	-1.78074E-001	-3.04557E-006	0.00000E+000	-1.78016E-001	0.00000E+000	9	...........	1488.97
	379	3.8	-1.79063E-001	-3.04294E-006	0.00000E+000	-1.79003E-001	0.00000E+000	9	...........	1488.97
[...]
	1007	10.08	-7.10505E-003	-1.28070E-006	0.00000E+000	-7.08234E-003	0.00000E+000	9	...........	1488.69
	1008	10.09	-8.10738E-003	-1.29420E-006	0.00000E+000	-8.08261E-003	0.00000E+000	9	...........	1488.69
	1009	10.1	-9.10732E-003	-1.35813E-006	0.00000E+000	-9.08288E-003	0.00000E+000	9	...........	1488.69
	1010	10.11	-1.01058E-002	-1.36081E-006	0.00000E+000	-1.00831E-002	0.00000E+000	9	...........	1488.69
	1011	10.12	-1.11096E-002	-1.41096E-006	0.00000E+000	-1.10834E-002	0.00000E+000	9	...........	1488.69
	1012	10.13	-1.21100E-002	-1.41804E-006	0.00000E+000	-1.20837E-002	0.00000E+000	9	...........	1488.69
	1013	10.14	-1.31119E-002	-1.46066E-006	0.00000E+000	-1.30839E-002	0.00000E+000	9	...........	1488.69
	1014	10.15	-1.41115E-002	-1.45436E-006	0.00000E+000	-1.40842E-002	0.00000E+000	9	...........	1488.69
	1015	10.16	-1.51125E-002	-1.50345E-006	0.00000E+000	-1.50845E-002	0.00000E+000	9	...........	1488.69
	1016	10.17	-1.61121E-002	-1.49820E-006	0.00000E+000	-1.60847E-002	0.00000E+000	9	...........	1488.69
	1017	10.18	-1.71115E-002	-1.53574E-006	0.00000E+000	-1.70850E-002	0.00000E+000	9	...........	1488.69
	1018	10.19	-1.81129E-002	-1.52515E-006	0.00000E+000	-1.80853E-002	0.00000E+000	9	...........	1488.69
	1019	10.2	-1.91136E-002	-1.56559E-006	0.00000E+000	-1.90855E-002	0.00000E+000	9	...........	1488.69
	1020	10.21	-2.01179E-002	-1.56470E-006	0.00000E+000	-2.00858E-002	0.00000E+000	9	...........	1488.69
	1021	10.22	-2.11181E-002	-1.59632E-006	0.00000E+000	-2.10861E-002	0.00000E+000	9	...........	1488.69
	1022	10.23	-2.21175E-002	-1.59900E-006	0.00000E+000	-2.20864E-002	0.00000E+000	9	...........	1488.69
	1023	10.24	-2.31046E-002	-1.59526E-006	0.00000E+000	-2.30741E-002	0.00000E+000	9	...........	1488.69
	1024	10.25	-2.41031E-002	-1.63281E-006	0.00000E+000	-2.40744E-002	0.00000E+000	9	...........	1488.69
	1025	10.26	-2.51061E-002	-1.64608E-006	0.00000E+000	-2.50746E-002	0.00000E+000	9	...........	1488.69
	1026	10.27	-2.61080E-002	-1.65021E-006	0.00000E+000	-2.60749E-002	0.00000E+000	9	...........	1488.69
	1027	10.28	-2.71112E-002	-1.67370E-006	0.00000E+000	-2.70752E-002	0.00000E+000	9	...........	1488.69
	1028	10.29	-2.81085E-002	-1.67414E-006	0.00000E+000	-2.80754E-002	0.00000E+000	9	...........	1488.69
	1029	10.3	-2.91093E-002	-1.70298E-006	0.00000E+000	-2.90757E-002	0.00000E+000	9	...........	1488.69
	1030	10.31	-3.01093E-002	-1.67715E-006	0.00000E+000	-3.00760E-002	0.00000E+000	9	...........	1488.69
	1031	10.32	-3.11072E-002	-1.71754E-006	0.00000E+000	-3.10763E-002	0.00000E+000	9	...........	1488.69
	1032	10.33	-3.21085E-002	-1.70984E-006	0.00000E+000	-3.20765E-002	0.00000E+000	9	...........	1488.69
	1033	10.34	-3.31110E-002	-1.73902E-006	0.00000E+000	-3.30768E-002	0.00000E+000	9	...........	1488.69
	1034	10.35	-3.41115E-002	-1.72686E-006	0.00000E+000	-3.40771E-002	0.00000E+000	9	...........	1488.69
	1035	10.36	-3.51134E-002	-1.75101E-006	0.00000E+000	-3.50773E-002	0.00000E+000	9	...........	1488.69
	1036	10.37	-3.61114E-002	-1.73779E-006	0.00000E+000	-3.60776E-002	0.00000E+000	9	...........	1488.69
	1037	10.38	-3.71124E-002	-1.77667E-006	0.00000E+000	-3.70779E-002	0.00000E+000	9	...........	1488.69
	1038	10.39	-3.81131E-002	-1.77332E-006	0.00000E+000	-3.80781E-002	0.00000E+000	9	...........	1488.69
	1039	10.4	-3.91152E-002	-1.78794E-006	0.00000E+000	-3.90784E-002	0.00000E+000	9	...........	1488.69
	1040	10.41	-4.01032E-002	-1.75921E-006	0.00000E+000	-4.00662E-002	0.00000E+000	9	...........	1488.69
	1041	10.42	-4.11026E-002	-1.81014E-006	0.00000E+000	-4.10664E-002	0.00000E+000	9	...........	1488.69
	1042	10.43	-4.21037E-002	-1.80110E-006	0.00000E+000	-4.20667E-002	0.00000E+000	9	...........	1488.69
	1043	10.44	-4.31045E-002	-1.83402E-006	0.00000E+000	-4.30670E-002	0.00000E+000	9	...........	1488.69
	1044	10.45	-4.41078E-002	-1.82258E-006	0.00000E+000	-4.40672E-002	0.00000E+000	9	...........	1488.69
	1045	10.46	-4.51084E-002	-1.84171E-006	0.00000E+000	-4.50675E-002	0.00000E+000	9	...........	1488.69
	1046	10.47	-4.61071E-002	-1.84885E-006	0.00000E+000	-4.60678E-002	0.00000E+000	9	...........	1488.69
	1047	10.48	-4.71094E-002	-1.86135E-006	0.00000E+000	-4.70680E-002	0.00000E+000	9	...........	1488.69
	1048	10.49	-4.81091E-002	-1.83731E-006	0.00000E+000	-4.80683E-002	0.00000E+000	9	...........	1488.69
	1049	10.5	-4.91078E-002	-1.87926E-006	0.00000E+000	-4.90686E-002	0.00000E+000	9	...........	1488.69
	1050	10.51	-5.01086E-002	-1.88138E-006	0.00000E+000	-5.00688E-002	0.00000E+000	9	...........	1488.69
	1051	10.52	-5.11105E-002	-1.90001E-006	0.00000E+000	-5.10691E-002	0.00000E+000	9	...........	1488.69
	1052	10.53	-5.21128E-002	-1.87831E-006	0.00000E+000	-5.20694E-002	0.00000E+000	9	...........	1488.69
	1053	10.54	-5.31136E-002	-1.90374E-006	0.00000E+000	-5.30696E-002	0.00000E+000	9	...........	1488.69
	1054	10.55	-5.41129E-002	-1.90135E-006	0.00000E+000	-5.40699E-002	0.00000E+000	9	...........	1488.69
	1055	10.56	-5.51139E-002	-1.92673E-006	0.00000E+000	-5.50702E-002	0.00000E+000	9	...........	1488.69
	1056	10.57	-5.61114E-002	-1.90419E-006	0.00000E+000	-5.60704E-002	0.00000E+000	9	...........	1488.69
	1057	10.58	-5.71153E-002	-1.94374E-006	0.00000E+000	-5.70707E-002	0.00000E+000	9	...........	1488.69
	1058	10.59	-5.81024E-002	-1.90653E-006	0.00000E+000	-5.80585E-002	0.00000E+000	9	...........	1488.69
	1059	10.6	-5.91031E-002	-1.95930E-006	0.00000E+000	-5.90587E-002	0.00000E+000	9	...........	1488.69
	1060	10.61	-6.01020E-002	-1.94670E-006	0.00000E+000	-6.00590E-002	0.00000E+000	9	...........	1488.69
	1061	10.62	-6.11041E-002	-1.96840E-006	0.00000E+000	-6.10593E-002	0.00000E+000	9	...........	1488.69
	1062	10.63	-6.21049E-002	-1.95707E-006	0.00000E+000	-6.20595E-002	0.00000E+000	9	...........	1488.69
	1063	10.64	-6.31030E-002	-1.98357E-006	0.00000E+000	-6.30598E-002	0.00000E+000	9	...........	1488.69
	1064	10.65	-6.41040E-002	-1.97554E-006	0.00000E+000	-6.40601E-002	0.00000E+000	9	...........	1488.69
	1065	10.66	-6.51051E-002	-2.00376E-006	0.00000E+000	-6.50603E-002	0.00000E+000	9	...........	1488.69
	1066	10.67	-6.61067E-002	-1.98552E-006	0.00000E+000	-6.60606E-002	0.00000E+000	9	...........	1488.69
	1067	10.68	-6.71078E-002	-2.01609E-006	0.00000E+000	-6.70609E-002	0.00000E+000	9	...........	1488.69
	1068	10.69	-6.81044E-002	-1.99662E-006	0.00000E+000	-6.80611E-002	0.00000E+000	9	...........	1488.69
	1069	10.7	-6.91063E-002	-2.03294E-006	0.00000E+000	-6.90614E-002	0.00000E+000	9	...........	1488.69
	1070	10.71	-7.01072E-002	-2.01146E-006	0.00000E+000	-7.00617E-002	0.00000E+000	9	...........	1488.69
	1071	10.72	-7.11087E-002	-2.04348E-006	0.00000E+000	-7.10619E-002	0.00000E+000	9	...........	1488.69
	1072	10.73	-7.21080E-002	-2.02697E-006	0.00000E+000	-7.20622E-002	0.00000E+000	9	...........	1488.69
	1073	10.74	-7.31088E-002	-2.05486E-006	0.00000E+000	-7.30625E-002	0.00000E+000	9	...........	1488.69
	1074	10.75	-7.41099E-002	-2.03238E-006	0.00000E+000	-7.40627E-002	0.00000E+000	9	...........	1488.69
	1075	10.76	-7.50972E-002	-2.04633E-006	0.00000E+000	-7.50505E-002	0.00000E+000	9	...........	1488.69
	1076	10.77	-7.60979E-002	-2.05363E-006	0.00000E+000	-7.60508E-002	0.00000E+000	9	...........	1488.69
	1077	10.78	-7.70968E-002	-2.07907E-006	0.00000E+000	-7.70510E-002	0.00000E+000	9	...........	1488.69
	1078	10.79	-7.80996E-002	-2.07606E-006	0.00000E+000	-7.80513E-002	0.00000E+000	9	...........	1488.69
	1079	10.8	-7.91000E-002	-2.09943E-006	0.00000E+000	-7.90516E-002	0.00000E+000	9	...........	1488.69
	1080	10.81	-8.00996E-002	-2.08303E-006	0.00000E+000	-8.00518E-002	0.00000E+000	9	...........	1488.69
	1081	10.82	-8.11015E-002	-2.10322E-006	0.00000E+000	-8.10521E-002	0.00000E+000	9	...........	1488.69
	1082	10.83	-8.20994E-002	-2.09424E-006	0.00000E+000	-8.20524E-002	0.00000E+000	9	...........	1488.69
	1083	10.84	-8.30976E-002	-2.13240E-006	0.00000E+000	-8.30526E-002	0.00000E+000	9	...........	1488.69
	1084	10.85	-8.40991E-002	-2.11103E-006	0.00000E+000	-8.40529E-002	0.00000E+000	9	...........	1488.69
	1085	10.86	-8.50999E-002	-2.13061E-006	0.00000E+000	-8.50532E-002	0.00000E+000	9	...........	1488.69
	1086	10.87	-8.61026E-002	-2.13011E-006	0.00000E+000	-8.60534E-002	0.00000E+000	9	...........	1488.69
	1087	10.88	-8.70992E-002	-2.16297E-006	0.00000E+000	-8.70537E-002	0.00000E+000	9	...........	1488.69
	1088	10.89	-8.81002E-002	-2.12582E-006	0.00000E+000	-8.80540E-002	0.00000E+000	9	...........	1488.69
	1089	10.9	-8.91013E-002	-2.17597E-006	0.00000E+000	-8.90542E-002	0.00000E+000	9	...........	1488.69
	1090	10.91	-9.01010E-002	-2.14807E-006	0.00000E+000	-9.00545E-002	0.00000E+000	9	...........	1488.69
	1091	10.92	-9.11023E-002	-2.19789E-006	0.00000E+000	-9.10548E-002	0.00000E+000	9	...........	1488.69
	1092	10.93	-9.20904E-002	-2.13920E-006	0.00000E+000	-9.20426E-002	0.00000E+000	9	...........	1488.69
	1093	10.94	-9.30912E-002	-2.19354E-006	0.00000E+000	-9.30428E-002	0.00000E+000	9	...........	1488.69
	1094	10.95	-9.40900E-002	-2.17111E-006	0.00000E+000	-9.40431E-002	0.00000E+000	9	...........	1488.69
	1095	10.96	-9.50907E-002	-2.22037E-006	0.00000E+000	-9.50433E-002	0.00000E+000	9	...........	1488.69
	1096	10.97	-9.60919E-002	-2.20380E-006	0.00000E+000	-9.60436E-002	0.00000E+000	9	...........	1488.69
	1097	10.98	-9.70943E-002	-2.22444E-006	0.00000E+000	-9.70439E-002	0.00000E+000	9	...........	1488.69
	1098	10.99	-9.80930E-002	-2.20581E-006	0.00000E+000	-9.80441E-002	0.00000E+000	9	...........	1488.69
	1099	11	-9.90962E-002	-2.23024E-006	0.00000E+000	-9.90444E-002	0.00000E+000	9	...........	1488.69
	1100	11.01	-1.00092E-001	-2.22266E-006	0.00000E+000	-1.00045E-001	0.00000E+000	9	...........	1488.69
	1101	11.02	-1.01093E-001	-2.25663E-006	0.00000E+000	-1.01045E-001	0.00000E+000	9	...........	1488.69
	1102	11.03	-1.02095E-001	-2.23498E-006	0.00000E+000	-1.02045E-001	0.00000E+000	9	...........	1488.69
	1103	11.04	-1.03096E-001	-2.25819E-006	0.00000E+000	-1.03045E-001	0.00000E+000	9	...........	1488.69
	1104	11.05	-1.04096E-001	-2.25925E-006	0.00000E+000	-1.04046E-001	0.00000E+000	9	...........	1488.69
	1105	11.06	-1.05095E-001	-2.28034E-006	0.00000E+000	-1.05046E-001	0.00000E+000	9	...........	1488.69
	1106	11.07	-1.06097E-001	-2.26360E-006	0.00000E+000	-1.06046E-001	0.00000E+000	9	...........	1488.69
	1107	11.08	-1.07096E-001	-2.29110E-006	0.00000E+000	-1.07047E-001	0.00000E+000	9	...........	1488.69
	1108	11.09	-1.08095E-001	-2.28909E-006	0.00000E+000	-1.08047E-001	0.00000E+000	9	...........	1488.69
	1109	11.1	-1.09095E-001	-2.30834E-006	0.00000E+000	-1.09047E-001	0.00000E+000	9	...........	1488.69
	1110	11.11	-1.10085E-001	-2.26790E-006	0.00000E+000	-1.10035E-001	0.00000E+000	9	...........	1488.69
	1111	11.12	-1.11084E-001	-2.31620E-006	0.00000E+000	-1.11035E-001	0.00000E+000	9	...........	1488.69
	1112	11.13	-1.12084E-001	-2.30984E-006	0.00000E+000	-1.12035E-001	0.00000E+000	9	...........	1488.69
	1113	11.14	-1.13083E-001	-2.33891E-006	0.00000E+000	-1.13036E-001	0.00000E+000	9	...........	1488.69
	1114	11.15	-1.14084E-001	-2.32703E-006	0.00000E+000	-1.14036E-001	0.00000E+000	9	...........	1488.69
	1115	11.16	-1.15084E-001	-2.36222E-006	0.00000E+000	-1.15036E-001	0.00000E+000	9	...........	1488.69
	1116	11.17	-1.16087E-001	-2.34421E-006	0.00000E+000	-1.16036E-001	0.00000E+000	9	...........	1488.69
	1117	11.18	-1.17087E-001	-2.36451E-006	0.00000E+000	-1.17037E-001	0.00000E+000	9	...........	1488.69
	1118	11.19	-1.18085E-001	-2.35927E-006	0.00000E+000	-1.18037E-001	0.00000E+000	9	...........	1488.69
	1119	11.2	-1.19086E-001	-2.37656E-006	0.00000E+000	-1.19037E-001	0.00000E+000	9	...........	1488.69
	1120	11.21	-1.20087E-001	-2.38192E-006	0.00000E+000	-1.20038E-001	0.00000E+000	9	...........	1488.69
	1121	11.22	-1.21087E-001	-2.39714E-006	0.00000E+000	-1.21038E-001	0.00000E+000	9	...........	1488.69
	1122	11.23	-1.22089E-001	-2.39045E-006	0.00000E+000	-1.22038E-001	0.00000E+000	9	...........	1488.69
	1123	11.24	-1.23088E-001	-2.42314E-006	0.00000E+000	-1.23038E-001	0.00000E+000	9	...........	1488.69
	1124	11.25	-1.24091E-001	-2.40406E-006	0.00000E+000	-1.24039E-001	0.00000E+000	9	...........	1488.69
	1125	11.26	-1.25089E-001	-2.44908E-006	0.00000E+000	-1.25039E-001	0.00000E+000	9	...........	1488.69
	1126	11.27	-1.26089E-001	-2.41929E-006	0.00000E+000	-1.26039E-001	0.00000E+000	9	...........	1488.69
	1127	11.28	-1.27078E-001	-2.44612E-006	0.00000E+000	-1.27027E-001	0.00000E+000	9	...........	1488.69
	1128	11.29	-1.28078E-001	-2.44344E-006	0.00000E+000	-1.28027E-001	0.00000E+000	9	...........	1488.69
	1129	11.3	-1.29081E-001	-2.47072E-006	0.00000E+000	-1.29027E-001	0.00000E+000	9	...........	1488.69
	1130	11.31	-1.30080E-001	-2.45817E-006	0.00000E+000	-1.30028E-001	0.00000E+000	9	...........	1488.69
	1131	11.32	-1.31079E-001	-2.49393E-006	0.00000E+000	-1.31028E-001	0.00000E+000	9	...........	1488.69
	1132	11.33	-1.32077E-001	-2.47535E-006	0.00000E+000	-1.32028E-001	0.00000E+000	9	...........	1488.69
	1133	11.34	-1.33079E-001	-2.50871E-006	0.00000E+000	-1.33029E-001	0.00000E+000	9	...........	1488.69
	1134	11.35	-1.34081E-001	-2.49728E-006	0.00000E+000	-1.34029E-001	0.00000E+000	9	...........	1488.69
	1135	11.36	-1.35084E-001	-2.53141E-006	0.00000E+000	-1.35029E-001	0.00000E+000	9	...........	1488.69
	1136	11.37	-1.36080E-001	-2.50319E-006	0.00000E+000	-1.36029E-001	0.00000E+000	9	...........	1488.69
	1137	11.38	-1.37083E-001	-2.54173E-006	0.00000E+000	-1.37030E-001	0.00000E+000	9	...........	1488.69
	1138	11.39	-1.38083E-001	-2.53420E-006	0.00000E+000	-1.38030E-001	0.00000E+000	9	...........	1488.69
	1139	11.4	-1.39082E-001	-2.56310E-006	0.00000E+000	-1.39030E-001	0.00000E+000	9	...........	1488.69
	1140	11.41	-1.40083E-001	-2.56299E-006	0.00000E+000	-1.40030E-001	0.00000E+000	9	...........	1488.69
	1141	11.42	-1.41082E-001	-2.57744E-006	0.00000E+000	-1.41031E-001	0.00000E+000	9	...........	1488.69
	1142	11.43	-1.42086E-001	-2.57883E-006	0.00000E+000	-1.42031E-001	0.00000E+000	9	...........	1488.69
	1143	11.44	-1.43086E-001	-2.59902E-006	0.00000E+000	-1.43031E-001	0.00000E+000	9	...........	1488.69
	1144	11.45	-1.44085E-001	-2.58870E-006	0.00000E+000	-1.44031E-001	0.00000E+000	9	...........	1488.69
	1145	11.46	-1.45076E-001	-2.59367E-006	0.00000E+000	-1.45019E-001	0.00000E+000	9	...........	1488.69
	1146	11.47	-1.46073E-001	-2.61130E-006	0.00000E+000	-1.46019E-001	0.00000E+000	9	...........	1488.69
	1147	11.48	-1.47076E-001	-2.63958E-006	0.00000E+000	-1.47020E-001	0.00000E+000	9	...........	1488.69
	1148	11.49	-1.48076E-001	-2.63690E-006	0.00000E+000	-1.48020E-001	0.00000E+000	9	...........	1488.69
	1149	11.5	-1.49076E-001	-2.66853E-006	0.00000E+000	-1.49020E-001	0.00000E+000	9	...........	1488.69
	1150	11.51	-1.50076E-001	-2.65815E-006	0.00000E+000	-1.50021E-001	0.00000E+000	9	...........	1488.69
	1151	11.52	-1.51076E-001	-2.68621E-006	0.00000E+000	-1.51021E-001	0.00000E+000	9	...........	1488.69
	1152	11.53	-1.52076E-001	-2.67768E-006	0.00000E+000	-1.52021E-001	0.00000E+000	9	...........	1488.69
	1153	11.54	-1.53078E-001	-2.71717E-006	0.00000E+000	-1.53021E-001	0.00000E+000	9	...........	1488.69
	1154	11.55	-1.54075E-001	-2.70529E-006	0.00000E+000	-1.54022E-001	0.00000E+000	9	...........	1488.69
	1155	11.56	-1.55076E-001	-2.73006E-006	0.00000E+000	-1.55022E-001	0.00000E+000	9	...........	1488.69
	1156	11.57	-1.56079E-001	-2.73698E-006	0.00000E+000	-1.56022E-001	0.00000E+000	9	...........	1488.69
	1157	11.58	-1.57077E-001	-2.74808E-006	0.00000E+000	-1.57022E-001	0.00000E+000	9	...........	1488.69
	1158	11.59	-1.58076E-001	-2.74607E-006	0.00000E+000	-1.58023E-001	0.00000E+000	9	...........	1488.69
	1159	11.6	-1.59076E-001	-2.78194E-006	0.00000E+000	-1.59023E-001	0.00000E+000	9	...........	1488.69
	1160	11.61	-1.60076E-001	-2.76353E-006	0.00000E+000	-1.60023E-001	0.00000E+000	9	...........	1488.69
	1161	11.62	-1.61080E-001	-2.82840E-006	0.00000E+000	-1.61023E-001	0.00000E+000	9	...........	1488.69
	1162	11.63	-1.62069E-001	-2.76353E-006	0.00000E+000	-1.62011E-001	0.00000E+000	9	...........	1488.69
	1163	11.64	-1.63071E-001	-2.85295E-006	0.00000E+000	-1.63012E-001	0.00000E+000	9	...........	1488.69
	1164	11.65	-1.64069E-001	-2.82193E-006	0.00000E+000	-1.64012E-001	0.00000E+000	9	...........	1488.69
	1165	11.66	-1.65068E-001	-2.86929E-006	0.00000E+000	-1.65012E-001	0.00000E+000	9	...........	1488.69
	1166	11.67	-1.66067E-001	-2.85484E-006	0.00000E+000	-1.66012E-001	0.00000E+000	9	...........	1488.69
	1167	11.68	-1.67070E-001	-2.89796E-006	0.00000E+000	-1.67013E-001	0.00000E+000	9	...........	1488.69
	1168	11.69	-1.68069E-001	-2.86979E-006	0.00000E+000	-1.68013E-001	0.00000E+000	9	...........	1488.69
	1169	11.7	-1.69069E-001	-2.92519E-006	0.00000E+000	-1.69013E-001	0.00000E+000	9	...........	1488.69
	1170	11.71	-1.70069E-001	-2.91007E-006	0.00000E+000	-1.70013E-001	0.00000E+000	9	...........	1488.69
	1171	11.72	-1.71069E-001	-2.93651E-006	0.00000E+000	-1.71014E-001	0.00000E+000	9	...........	1488.69
	1172	11.73	-1.72072E-001	-2.94025E-006	0.00000E+000	-1.72014E-001	0.00000E+000	9	...........	1488.69
	1173	11.74	-1.73070E-001	-2.98130E-006	0.00000E+000	-1.73014E-001	0.00000E+000	9	...........	1488.69
	1174	11.75	-1.74072E-001	-2.97327E-006	0.00000E+000	-1.74014E-001	0.00000E+000	9	...........	1488.69
	1175	11.76	-1.75072E-001	-3.01271E-006	0.00000E+000	-1.75015E-001	0.00000E+000	9	...........	1488.69
	1176	11.77	-1.76074E-001	-3.00987E-006	0.00000E+000	-1.76015E-001	0.00000E+000	9	...........	1488.69
	1177	11.78	-1.77069E-001	-3.03285E-006	0.00000E+000	-1.77015E-001	0.00000E+000	9	...........	1488.69
	1178	11.79	-1.78072E-001	-3.03402E-006	0.00000E+000	-1.78016E-001	0.00000E+000	9	...........	1488.69
	1179	11.8	-1.79062E-001	-3.04668E-006	0.00000E+000	-1.79003E-001	0.00000E+000	9	...........	1488.69
	1180	11.81	-1.80062E-001	-3.07781E-006	0.00000E+000	-1.80004E-001	0.00000E+000	9	...........	1488.69
	1181	11.82	-1.81065E-001	-3.11094E-006	0.00000E+000	-1.81004E-001	0.00000E+000	9	...........	1488.69
	1182	11.83	-1.82062E-001	-3.10079E-006	0.00000E+000	-1.82004E-001	0.00000E+000	9	...........	1488.69
	1183	11.84	-1.83064E-001	-3.16014E-006	0.00000E+000	-1.83004E-001	0.00000E+000	9	...........	1488.69
	1184	11.85	-1.84063E-001	-3.12930E-006	0.00000E+000	-1.84005E-001	0.00000E+000	9	...........	1488.69
	1185	11.86	-1.85065E-001	-3.17404E-006	0.00000E+000	-1.85005E-001	0.00000E+000	9	...........	1488.69
	1186	11.87	-1.86065E-001	-3.18859E-006	0.00000E+000	-1.86005E-001	0.00000E+000	9	...........	1488.69
	1187	11.88	-1.87065E-001	-3.22608E-006	0.00000E+000	-1.87005E-001	0.00000E+000	9	...........	1488.69
	1188	11.89	-1.88066E-001	-3.21147E-006	0.00000E+000	-1.88006E-001	0.00000E+000	9	...........	1488.69
	1189	11.9	-1.89065E-001	-3.26535E-006	0.00000E+000	-1.89006E-001	0.00000E+000	9	...........	1488.69
	1190	11.91	-1.90064E-001	-3.25208E-006	0.00000E+000	-1.90006E-001	0.00000E+000	9	...........	1488.69
	1191	11.92	-1.91066E-001	-3.31316E-006	0.00000E+000	-1.91006E-001	0.00000E+000	9	...........	1488.69
	1192	11.93	-1.92066E-001	-3.29676E-006	0.00000E+000	-1.92007E-001	0.00000E+000	9	...........	1488.69
	1193	11.94	-1.93067E-001	-3.36013E-006	0.00000E+000	-1.93007E-001	0.00000E+000	9	...........	1488.69
	1194	11.95	-1.94067E-001	-3.35823E-006	0.00000E+000	-1.94007E-001	0.00000E+000	9	...........	1488.69
	1195	11.96	-1.95068E-001	-3.40124E-006	0.00000E+000	-1.95008E-001	0.00000E+000	9	...........	1488.69
	1196	11.97	-1.96069E-001	-3.39784E-006	0.00000E+000	-1.96008E-001	0.00000E+000	9	...........	1488.69
	1197	11.98	-1.97055E-001	-3.41630E-006	0.00000E+000	-1.96996E-001	0.00000E+000	9	...........	1488.69
	1198	11.99	-1.98057E-001	-3.45278E-006	0.00000E+000	-1.97996E-001	0.00000E+000	9	...........	1488.69
	1199	12	-1.99059E-001	-3.50343E-006	0.00000E+000	-1.98996E-001	0.00000E+000	9	...........	1488.69
	1200	12.01	-2.00058E-001	-3.48848E-006	0.00000E+000	-1.99996E-001	0.00000E+000	9	...........	1488.69
CURVE4	TABLE
	Pt	T	Vf	Im	Vu	Sig	Ach	IERange	Over	Temp
	#	s	V vs. Ref.	A	V	V	V	#	bits	deg C
	1201	12.02	-2.00080E-001	-8.37229E-007	0.00000E+000	-1.99996E-001	0.00000E+000	9	...........	1488.69