File: input/CV_ECSA_#1_#3.DTA
EXPLAIN
TAG	CV
TITLE	LABEL	ECSA	Test Identifier
DATE	LABEL	20.8.2024	Date
TIME	LABEL	8:37:12	Time
NOTES	NOTES	1	Notes...

PSTAT	PSTAT	IFC1010-36105	Potentiostat
VINIT	POTEN	-2.00000E-001	F	A Potential (V)
VLIMIT1	POTEN	0.00000E+000	F	A Potential (V)
VLIMIT2	POTEN	-2.00000E-001	F	A Potential (V)
VFINAL	POTEN	-2.00000E-001	F	A Potential (V)
SCANRATE	QUANT	3.00000E+001	A Real Number
STEPSIZE	QUANT	1.00000E+000	Step Size (mV)
CYCLES	IQUANT	3	Cycles (#)
IMODE	SELECTOR	1	I/E Range Mode
IRANGE	QUANT	3.00000E-001	Max Current (mA)
AREA	QUANT	1.00000E+000	Sample Area (cm^2)
EQDELAY	QUANT	0.00000E+000	Equil. Time (s)
IRCOMP	SELECTOR	0	IRComp
PFCOR	QUANT	5.00000E+001	PF Corr. (ohm)
SAMPLINGMODE	SELECTOR	2	Sampling Mode
EOC	QUANT	-0.1790659	Open Circuit (V)
ELECTRODETYPE	SELECTOR	0	Electrode Type
STRIPPING	TOGGLE	F	Used for Stripping
SEQUENCER	TOGGLE	TRUE	Run as Sequence
PSTATMODEL	IQUANT	64	Pstat Model
PSTATSECTION	LABEL	IFC1010-36105	Pstat Section
PSTATSERIALNO	LABEL	36105	Pstat Serial Number
CTRLMODE	IQUANT	1	Control Mode
ELECTROMETER	IQUANT	0	RE=0 or CS=1
IESTAB	IQUANT	2	I/E Stability
CASPEED	IQUANT	4	Control Amp Speed
CONVENTION	IQUANT	1	Current Convention
ICHRANGE	IQUANT	2	Ich Range
ICHRANGEMODE	TOGGLE	F	Ich Auto Range
ICHOFFSETENABLE	TOGGLE	F	Ich Offset Enable
ICHOFFSET	QUANT	0	Ich Offset (V)
ICHFILTER	IQUANT	3	Ich Filter
VCHRANGE	IQUANT	1	Vch Range
VCHRANGEMODE	TOGGLE	F	Vch Auto Range
VCHOFFSETENABLE	TOGGLE	F	Vch Offset Enable
VCHOFFSET	QUANT	0	Vch Offset (V)
VCHFILTER	IQUANT	3	Vch Filter
IERANGELOWERLIMIT	IQUANT	4	I/E Range Lower Limit
IERANGEMODE	TOGGLE	F	I/E AutoRange
IERANGE	IQUANT	9	I/E Range
ACHSELECT	IQUANT	0	Ach Select
ACHRANGE	IQUANT	2	Ach Range
ACHOFFSETENABLE	TOGGLE	F	Ach Offset Enable
ACHOFFSET	QUANT	0	Ach Offset (V)
ACHFILTER	IQUANT	1	Ach Filter
SENSECABLEID	IQUANT	13	Sense Cable ID
PWRCABLEID	IQUANT	13	Power Cable ID
DCCALDATE	LABEL	10/17/2023	DC Calibration Date
ACCALDATE	LABEL	6/2/2023	AC Calibration Date
FRAMEWORKVERSION	LABEL	7.10.3	Framework Version
INSTRUMENTVERSION	LABEL	4.91	Instrument Version
COMMVERSION	LABEL	3.10	Communications Version
CPUPLDVERSION	LABEL	2.22	CPU PLD Version
CTRLPLDVERSION	LABEL	0.00	CTRL PLD Version
PSTATPLDVERSION	LABEL	0.00	PSTAT PLD Version
CURVE1	TABLE
	Pt	T	Vf	Im	Vu	Sig	Ach	IERange	Over	Temp
	#	s	V vs. Ref.	A	V	V	V	#	bits	deg C
	0	0.033333	-2.00079E-001	-1.77776E-007	0.00000E+000	-1.99996E-001	0.00000E+000	9	...........	1489.15
	1	0.066667	-1.99086E-001	7.53600E-007	0.00000E+000	-1.98996E-001	0.00000E+000	9	...........	1489.15
	2	0.1	-1.98085E-001	8.04973E-007	0.00000E+000	-1.97996E-001	0.00000E+000	9	...........	1489.15
	3	0.133333	-1.97084E-001	8.43908E-007	0.00000E+000	-1.96996E-001	0.00000E+000	9	...........	1489.15
	4	0.166667	-1.96084E-001	8.81841E-007	0.00000E+000	-1.95995E-001	0.00000E+000	9	...........	1489.15
	5	0.2	-1.95084E-001	8.98419E-007	0.00000E+000	-1.94995E-001	0.00000E+000	9	...........	1489.15
	6	0.233333	-1.94084E-001	9.24932E-007	0.00000E+000	-1.93995E-001	0.00000E+000	9	...........	1489.15
	7	0.266667	-1.93082E-001	9.47739E-007	0.00000E+000	-1.92995E-001	0.00000E+000	9	...........	1489.15
	8	0.3	-1.92081E-001	9.65503E-007	0.00000E+000	-1.91994E-001	0.00000E+000	9	...........	1489.15
	9	0.333333	-1.91080E-001	9.76038E-007	0.00000E+000	-1.90994E-001	0.00000E+000	9	...........	1489.15
	10	0.366667	-1.90092E-001	9.88143E-007	0.00000E+000	-1.90006E-001	0.00000E+000	9	...........	1489.15
	11	0.4	-1.89093E-001	1.01075E-006	0.00000E+000	-1.89006E-001	0.00000E+000	9	...........	1489.15
	12	0.433333	-1.88093E-001	1.02636E-006	0.00000E+000	-1.88006E-001	0.00000E+000	9	...........	1489.15
	13	0.466667	-1.87091E-001	1.04053E-006	0.00000E+000	-1.87005E-001	0.00000E+000	9	...........	1489.01
	14	0.5	-1.86092E-001	1.05209E-006	0.00000E+000	-1.86005E-001	0.00000E+000	9	...........	1488.69
	15	0.533333	-1.85090E-001	1.06139E-006	0.00000E+000	-1.85005E-001	0.00000E+000	9	...........	1488.69
	16	0.566667	-1.84090E-001	1.07458E-006	0.00000E+000	-1.84005E-001	0.00000E+000	9	...........	1488.69
	17	0.6	-1.83091E-001	1.08635E-006	0.00000E+000	-1.83004E-001	0.00000E+000	9	...........	1488.69
	18	0.633333	-1.82089E-001	1.10077E-006	0.00000E+000	-1.82004E-001	0.00000E+000	9	...........	1488.69
	19	0.666667	-1.81092E-001	1.11203E-006	0.00000E+000	-1.81004E-001	0.00000E+000	9	...........	1488.69
	20	0.7	-1.80089E-001	1.11870E-006	0.00000E+000	-1.80004E-001	0.00000E+000	9	...........	1488.69
	21	0.733333	-1.79088E-001	1.12226E-006	0.00000E+000	-1.79003E-001	0.00000E+000	9	...........	1488.69
	22	0.766667	-1.78088E-001	1.13009E-006	0.00000E+000	-1.78003E-001	0.00000E+000	9	...........	1488.69
	23	0.8	-1.77085E-001	1.13789E-006	0.00000E+000	-1.77003E-001	0.00000E+000	9	...........	1488.69
	24	0.833333	-1.76088E-001	1.14922E-006	0.00000E+000	-1.76002E-001	0.00000E+000	9	...........	1488.69
	25	0.866667	-1.75087E-001	1.16468E-006	0.00000E+000	-1.75002E-001	0.00000E+000	9	...........	1488.69
	26	0.9	-1.74086E-001	1.16637E-006	0.00000E+000	-1.74002E-001	0.00000E+000	9	...........	1488.69
	27	0.933333	-1.73085E-001	1.17565E-006	0.00000E+000	-1.73002E-001	0.00000E+000	9	...........	1488.69
	28	0.96667	-1.72085E-001	1.18185E-006	0.00000E+000	-1.72001E-001	0.00000E+000	9	...........	1488.69
	29	1	-1.71083E-001	1.18340E-006	0.00000E+000	-1.71001E-001	0.00000E+000	9	...........	1488.69
	30	1.03333	-1.70084E-001	1.19347E-006	0.00000E+000	-1.70001E-001	0.00000E+000	9	...........	1488.69
	31	1.06667	-1.69082E-001	1.20066E-006	0.00000E+000	-1.69001E-001	0.00000E+000	9	...........	1488.69
	32	1.1	-1.68083E-001	1.20238E-006	0.00000E+000	-1.68000E-001	0.00000E+000	9	...........	1488.69
	33	1.13333	-1.67084E-001	1.21046E-006	0.00000E+000	-1.67000E-001	0.00000E+000	9	...........	1488.69
	34	1.16667	-1.66083E-001	1.21679E-006	0.00000E+000	-1.66000E-001	0.00000E+000	9	...........	1488.69
	35	1.2	-1.65083E-001	1.21854E-006	0.00000E+000	-1.65000E-001	0.00000E+000	9	...........	1488.69
	36	1.23333	-1.64085E-001	1.21731E-006	0.00000E+000	-1.63999E-001	0.00000E+000	9	...........	1488.69
	37	1.26667	-1.63085E-001	1.23202E-006	0.00000E+000	-1.62999E-001	0.00000E+000	9	...........	1488.69
	38	1.3	-1.62083E-001	1.23310E-006	0.00000E+000	-1.61999E-001	0.00000E+000	9	...........	1488.69
	39	1.33333	-1.61082E-001	1.23267E-006	0.00000E+000	-1.60998E-001	0.00000E+000	9	...........	1488.69
	40	1.36667	-1.60083E-001	1.23913E-006	0.00000E+000	-1.59998E-001	0.00000E+000	9	...........	1488.69
	41	1.4	-1.59079E-001	1.23788E-006	0.00000E+000	-1.58998E-001	0.00000E+000	9	...........	1488.69
	42	1.43333	-1.58080E-001	1.24633E-006	0.00000E+000	-1.57998E-001	0.00000E+000	9	...........	1488.69
	43	1.46667	-1.57081E-001	1.24529E-006	0.00000E+000	-1.56997E-001	0.00000E+000	9	...........	1488.78
	44	1.5	-1.56081E-001	1.25407E-006	0.00000E+000	-1.55997E-001	0.00000E+000	9	...........	1488.97
	45	1.53333	-1.55080E-001	1.25628E-006	0.00000E+000	-1.54997E-001	0.00000E+000	9	...........	1488.97
	46	1.56667	-1.54079E-001	1.26506E-006	0.00000E+000	-1.53997E-001	0.00000E+000	9	...........	1488.97
	47	1.6	-1.53078E-001	1.26521E-006	0.00000E+000	-1.52996E-001	0.00000E+000	9	...........	1488.97
	48	1.63333	-1.52077E-001	1.26257E-006	0.00000E+000	-1.51996E-001	0.00000E+000	9	...........	1488.97
	49	1.66667	-1.51080E-001	1.26439E-006	0.00000E+000	-1.50996E-001	0.00000E+000	9	...........	1488.97
	50	1.7	-1.50079E-001	1.26169E-006	0.00000E+000	-1.49996E-001	0.00000E+000	9	...........	1488.97
	51	1.73333	-1.49080E-001	1.27374E-006	0.00000E+000	-1.48995E-001	0.00000E+000	9	...........	1488.97
	52	1.76667	-1.48080E-001	1.28032E-006	0.00000E+000	-1.47995E-001	0.00000E+000	9	...........	1488.97
	53	1.8	-1.47079E-001	1.28354E-006	0.00000E+000	-1.46995E-001	0.00000E+000	9	...........	1488.97
	54	1.83333	-1.46077E-001	1.28753E-006	0.00000E+000	-1.45994E-001	0.00000E+000	9	...........	1488.97
	55	1.86667	-1.45076E-001	1.28795E-006	0.00000E+000	-1.44994E-001	0.00000E+000	9	...........	1488.97
	56	1.9	-1.44077E-001	1.29227E-006	0.00000E+000	-1.43994E-001	0.00000E+000	9	...........	1488.97
	57	1.93333	-1.43090E-001	1.28540E-006	0.00000E+000	-1.43006E-001	0.00000E+000	9	...........	1488.97
	58	1.96667	-1.42089E-001	1.30217E-006	0.00000E+000	-1.42006E-001	0.00000E+000	9	...........	1488.97
	59	2	-1.41087E-001	1.29692E-006	0.00000E+000	-1.41006E-001	0.00000E+000	9	...........	1488.97
	60	2.03333	-1.40088E-001	1.30020E-006	0.00000E+000	-1.40005E-001	0.00000E+000	9	...........	1488.97
	61	2.06667	-1.39088E-001	1.30359E-006	0.00000E+000	-1.39005E-001	0.00000E+000	9	...........	1488.97
	62	2.1	-1.38087E-001	1.30692E-006	0.00000E+000	-1.38005E-001	0.00000E+000	9	...........	1488.97
	63	2.13333	-1.37087E-001	1.30793E-006	0.00000E+000	-1.37005E-001	0.00000E+000	9	...........	1488.97
	64	2.16667	-1.36086E-001	1.31294E-006	0.00000E+000	-1.36004E-001	0.00000E+000	9	...........	1488.97
	65	2.2	-1.35086E-001	1.31508E-006	0.00000E+000	-1.35004E-001	0.00000E+000	9	...........	1488.97
	66	2.23333	-1.34085E-001	1.32046E-006	0.00000E+000	-1.34004E-001	0.00000E+000	9	...........	1488.97
	67	2.26667	-1.33084E-001	1.31628E-006	0.00000E+000	-1.33004E-001	0.00000E+000	9	...........	1488.97
	68	2.3	-1.32082E-001	1.31914E-006	0.00000E+000	-1.32003E-001	0.00000E+000	9	...........	1488.97
	69	2.33333	-1.31083E-001	1.32536E-006	0.00000E+000	-1.31003E-001	0.00000E+000	9	...........	1488.97
	70	2.36667	-1.30084E-001	1.32954E-006	0.00000E+000	-1.30003E-001	0.00000E+000	9	...........	1488.97
	71	2.4	-1.29084E-001	1.33294E-006	0.00000E+000	-1.29002E-001	0.00000E+000	9	...........	1488.97
	72	2.43333	-1.28081E-001	1.32837E-006	0.00000E+000	-1.28002E-001	0.00000E+000	9	...........	1488.97
	73	2.46667	-1.27081E-001	1.33729E-006	0.00000E+000	-1.27002E-001	0.00000E+000	9	...........	1489.00
	74	2.5	-1.26082E-001	1.33310E-006	0.00000E+000	-1.26002E-001	0.00000E+000	9	...........	1489.06
	75	2.53333	-1.25082E-001	1.33772E-006	0.00000E+000	-1.25001E-001	0.00000E+000	9	...........	1489.06
	76	2.56667	-1.24082E-001	1.33740E-006	0.00000E+000	-1.24001E-001	0.00000E+000	9	...........	1489.06
	77	2.6	-1.23081E-001	1.33550E-006	0.00000E+000	-1.23001E-001	0.00000E+000	9	...........	1489.06
	78	2.63333	-1.22081E-001	1.34360E-006	0.00000E+000	-1.22001E-001	0.00000E+000	9	...........	1489.06
	79	2.66667	-1.21080E-001	1.34473E-006	0.00000E+000	-1.21000E-001	0.00000E+000	9	...........	1489.06
	80	2.7	-1.20077E-001	1.34031E-006	0.00000E+000	-1.20000E-001	0.00000E+000	9	...........	1489.06
	81	2.73333	-1.19078E-001	1.34615E-006	0.00000E+000	-1.19000E-001	0.00000E+000	9	...........	1489.06
	82	2.76667	-1.18077E-001	1.35398E-006	0.00000E+000	-1.17999E-001	0.00000E+000	9	...........	1489.06
	83	2.8	-1.17078E-001	1.35038E-006	0.00000E+000	-1.16999E-001	0.00000E+000	9	...........	1489.06
	84	2.83333	-1.16078E-001	1.35615E-006	0.00000E+000	-1.15999E-001	0.00000E+000	9	...........	1489.06
	85	2.86667	-1.15077E-001	1.35841E-006	0.00000E+000	-1.14999E-001	0.00000E+000	9	...........	1489.06
	86	2.9	-1.14074E-001	1.36136E-006	0.00000E+000	-1.13998E-001	0.00000E+000	9	...........	1489.06
	87	2.93333	-1.13072E-001	1.36463E-006	0.00000E+000	-1.12998E-001	0.00000E+000	9	...........	1489.06
	88	2.96667	-1.12074E-001	1.36846E-006	0.00000E+000	-1.11998E-001	0.00000E+000	9	...........	1489.06
	89	3	-1.11073E-001	1.36238E-006	0.00000E+000	-1.10998E-001	0.00000E+000	9	...........	1489.06
	90	3.03333	-1.10072E-001	1.36675E-006	0.00000E+000	-1.09997E-001	0.00000E+000	9	...........	1489.06
	91	3.06667	-1.09073E-001	1.36856E-006	0.00000E+000	-1.08997E-001	0.00000E+000	9	...........	1489.06
	92	3.1	-1.08073E-001	1.36849E-006	0.00000E+000	-1.07997E-001	0.00000E+000	9	...........	1489.06
	93	3.13333	-1.07073E-001	1.37574E-006	0.00000E+000	-1.06997E-001	0.00000E+000	9	...........	1489.06
	94	3.16667	-1.06075E-001	1.37625E-006	0.00000E+000	-1.05996E-001	0.00000E+000	9	...........	1489.06
	95	3.2	-1.05074E-001	1.37275E-006	0.00000E+000	-1.04996E-001	0.00000E+000	9	...........	1489.06
	96	3.23333	-1.04073E-001	1.37687E-006	0.00000E+000	-1.03996E-001	0.00000E+000	9	...........	1489.06
	97	3.26667	-1.03072E-001	1.37699E-006	0.00000E+000	-1.02995E-001	0.00000E+000	9	...........	1489.06
	98	3.3	-1.02070E-001	1.38130E-006	0.00000E+000	-1.01995E-001	0.00000E+000	9	...........	1489.06
	99	3.33333	-1.01069E-001	1.38634E-006	0.00000E+000	-1.00995E-001	0.00000E+000	9	...........	1489.06
	100	3.36667	-1.00070E-001	1.38113E-006	0.00000E+000	-9.99947E-002	0.00000E+000	9	...........	1489.06
	101	3.4	-9.90738E-002	1.38038E-006	0.00000E+000	-9.89944E-002	0.00000E+000	9	...........	1489.06
	102	3.43333	-9.80720E-002	1.38527E-006	0.00000E+000	-9.79941E-002	0.00000E+000	9	...........	1489.06
	103	3.46667	-9.70714E-002	1.38175E-006	0.00000E+000	-9.69939E-002	0.00000E+000	9	...........	1488.93
	104	3.5	-9.60813E-002	1.37437E-006	0.00000E+000	-9.60061E-002	0.00000E+000	9	...........	1488.69
	105	3.53333	-9.50789E-002	1.39220E-006	0.00000E+000	-9.50058E-002	0.00000E+000	9	...........	1488.69
	106	3.56667	-9.40793E-002	1.40033E-006	0.00000E+000	-9.40056E-002	0.00000E+000	9	...........	1488.69
	107	3.6	-9.30807E-002	1.39520E-006	0.00000E+000	-9.30053E-002	0.00000E+000	9	...........	1488.69
	108	3.63333	-9.20795E-002	1.39751E-006	0.00000E+000	-9.20050E-002	0.00000E+000	9	...........	1488.69
	109	3.66667	-9.10788E-002	1.39529E-006	0.00000E+000	-9.10048E-002	0.00000E+000	9	...........	1488.69
	110	3.7	-9.00783E-002	1.40073E-006	0.00000E+000	-9.00045E-002	0.00000E+000	9	...........	1488.69
	111	3.73333	-8.90800E-002	1.39879E-006	0.00000E+000	-8.90042E-002	0.00000E+000	9	...........	1488.69
	112	3.76667	-8.80789E-002	1.40245E-006	0.00000E+000	-8.80040E-002	0.00000E+000	9	...........	1488.69
	113	3.8	-8.70774E-002	1.40332E-006	0.00000E+000	-8.70037E-002	0.00000E+000	9	...........	1488.69
	114	3.83333	-8.60761E-002	1.40232E-006	0.00000E+000	-8.60034E-002	0.00000E+000	9	...........	1488.69
	115	3.86667	-8.50779E-002	1.41442E-006	0.00000E+000	-8.50032E-002	0.00000E+000	9	...........	1488.69
	116	3.9	-8.40765E-002	1.41088E-006	0.00000E+000	-8.40029E-002	0.00000E+000	9	...........	1488.69
	117	3.93333	-8.30763E-002	1.40798E-006	0.00000E+000	-8.30026E-002	0.00000E+000	9	...........	1488.69
	118	3.96667	-8.20762E-002	1.41474E-006	0.00000E+000	-8.20024E-002	0.00000E+000	9	...........	1488.69
	119	4	-8.10769E-002	1.41288E-006	0.00000E+000	-8.10021E-002	0.00000E+000	9	...........	1488.69
	120	4.03333	-8.00785E-002	1.41262E-006	0.00000E+000	-8.00018E-002	0.00000E+000	9	...........	1488.69
	121	4.06667	-7.90767E-002	1.41799E-006	0.00000E+000	-7.90016E-002	0.00000E+000	9	...........	1488.69
	122	4.1	-7.80760E-002	1.41854E-006	0.00000E+000	-7.80013E-002	0.00000E+000	9	...........	1488.69
	123	4.13333	-7.70736E-002	1.41874E-006	0.00000E+000	-7.70010E-002	0.00000E+000	9	...........	1488.69
	124	4.16667	-7.60744E-002	1.42531E-006	0.00000E+000	-7.60008E-002	0.00000E+000	9	...........	1488.69
	125	4.2	-7.50733E-002	1.43234E-006	0.00000E+000	-7.50005E-002	0.00000E+000	9	...........	1488.69
	126	4.23333	-7.40729E-002	1.42829E-006	0.00000E+000	-7.40002E-002	0.00000E+000	9	...........	1488.69
	127	4.26667	-7.30736E-002	1.43367E-006	0.00000E+000	-7.30000E-002	0.00000E+000	9	...........	1488.69
	128	4.3	-7.20729E-002	1.43182E-006	0.00000E+000	-7.19997E-002	0.00000E+000	9	...........	1488.69
	129	4.33333	-7.10741E-002	1.43405E-006	0.00000E+000	-7.09994E-002	0.00000E+000	9	...........	1488.69
	130	4.36667	-7.00714E-002	1.44185E-006	0.00000E+000	-6.99992E-002	0.00000E+000	9	...........	1488.69
	131	4.4	-6.90699E-002	1.44686E-006	0.00000E+000	-6.89989E-002	0.00000E+000	9	...........	1488.69
	132	4.43333	-6.80710E-002	1.44704E-006	0.00000E+000	-6.79986E-002	0.00000E+000	9	...........	1488.69
	133	4.46667	-6.70712E-002	1.44975E-006	0.00000E+000	-6.69984E-002	0.00000E+000	9	...........	1488.69
	134	4.5	-6.60705E-002	1.45618E-006	0.00000E+000	-6.59981E-002	0.00000E+000	9	...........	1488.69
	135	4.53333	-6.50695E-002	1.45199E-006	0.00000E+000	-6.49978E-002	0.00000E+000	9	...........	1488.69
	136	4.56667	-6.40678E-002	1.45154E-006	0.00000E+000	-6.39976E-002	0.00000E+000	9	...........	1488.69
	137	4.6	-6.30697E-002	1.45534E-006	0.00000E+000	-6.29973E-002	0.00000E+000	9	...........	1488.69
	138	4.63333	-6.20685E-002	1.45935E-006	0.00000E+000	-6.19970E-002	0.00000E+000	9	...........	1488.69
	139	4.66667	-6.10682E-002	1.45835E-006	0.00000E+000	-6.09967E-002	0.00000E+000	9	...........	1488.69
	140	4.7	-6.00687E-002	1.46304E-006	0.00000E+000	-5.99965E-002	0.00000E+000	9	...........	1488.69
	141	4.73333	-5.90683E-002	1.46144E-006	0.00000E+000	-5.89962E-002	0.00000E+000	9	...........	1488.69
	142	4.76667	-5.80691E-002	1.46688E-006	0.00000E+000	-5.79959E-002	0.00000E+000	9	...........	1488.69
	143	4.8	-5.70673E-002	1.46648E-006	0.00000E+000	-5.69957E-002	0.00000E+000	9	...........	1488.69
	144	4.83333	-5.60650E-002	1.47174E-006	0.00000E+000	-5.59954E-002	0.00000E+000	9	...........	1488.69
	145	4.86667	-5.50655E-002	1.47037E-006	0.00000E+000	-5.49951E-002	0.00000E+000	9	...........	1488.69
	146	4.9	-5.40633E-002	1.48157E-006	0.00000E+000	-5.39949E-002	0.00000E+000	9	...........	1488.69
	147	4.93333	-5.30644E-002	1.47593E-006	0.00000E+000	-5.29946E-002	0.00000E+000	9	...........	1488.69
	148	4.96667	-5.20636E-002	1.47893E-006	0.00000E+000	-5.19943E-002	0.00000E+000	9	...........	1488.69
	149	5	-5.10629E-002	1.48387E-006	0.00000E+000	-5.09941E-002	0.00000E+000	9	...........	1488.69
	150	5.03333	-5.00724E-002	1.47898E-006	0.00000E+000	-5.00063E-002	0.00000E+000	9	...........	1488.69
	151	5.06667	-4.90707E-002	1.48990E-006	0.00000E+000	-4.90060E-002	0.00000E+000	9	...........	1488.69
	152	5.1	-4.80742E-002	1.48822E-006	0.00000E+000	-4.80058E-002	0.00000E+000	9	...........	1488.69
	153	5.13333	-4.70752E-002	1.49234E-006	0.00000E+000	-4.70055E-002	0.00000E+000	9	...........	1488.69
	154	5.16667	-4.60722E-002	1.50084E-006	0.00000E+000	-4.60052E-002	0.00000E+000	9	...........	1488.69
	155	5.2	-4.50720E-002	1.51002E-006	0.00000E+000	-4.50050E-002	0.00000E+000	9	...........	1488.69
	156	5.23333	-4.40732E-002	1.50827E-006	0.00000E+000	-4.40047E-002	0.00000E+000	9	...........	1488.69
	157	5.26667	-4.30704E-002	1.51162E-006	0.00000E+000	-4.30044E-002	0.00000E+000	9	...........	1488.69
	158	5.3	-4.20704E-002	1.51141E-006	0.00000E+000	-4.20042E-002	0.00000E+000	9	...........	1488.69
	159	5.33333	-4.10699E-002	1.50513E-006	0.00000E+000	-4.10039E-002	0.00000E+000	9	...........	1488.69
	160	5.36667	-4.00707E-002	1.51717E-006	0.00000E+000	-4.00036E-002	0.00000E+000	9	...........	1488.69
	161	5.4	-3.90701E-002	1.52159E-006	0.00000E+000	-3.90034E-002	0.00000E+000	9	...........	1488.69
	162	5.43333	-3.80679E-002	1.52174E-006	0.00000E+000	-3.80031E-002	0.00000E+000	9	...........	1488.69
	163	5.46667	-3.70667E-002	1.53057E-006	0.00000E+000	-3.70028E-002	0.00000E+000	9	...........	1488.69
	164	5.5	-3.60651E-002	1.53121E-006	0.00000E+000	-3.60026E-002	0.00000E+000	9	...........	1488.69
	165	5.53333	-3.50690E-002	1.52705E-006	0.00000E+000	-3.50023E-002	0.00000E+000	9	...........	1488.69
	166	5.56667	-3.40668E-002	1.54042E-006	0.00000E+000	-3.40020E-002	0.00000E+000	9	...........	1488.69
	167	5.6	-3.30649E-002	1.54074E-006	0.00000E+000	-3.30018E-002	0.00000E+000	9	...........	1488.69
	168	5.63333	-3.20629E-002	1.54341E-006	0.00000E+000	-3.20015E-002	0.00000E+000	9	...........	1488.69
	169	5.66667	-3.10615E-002	1.55012E-006	0.00000E+000	-3.10012E-002	0.00000E+000	9	...........	1488.69
	170	5.7	-3.00623E-002	1.55558E-006	0.00000E+000	-3.00010E-002	0.00000E+000	9	...........	1488.69
	171	5.73333	-2.90633E-002	1.55694E-006	0.00000E+000	-2.90007E-002	0.00000E+000	9	...........	1488.69
	172	5.76667	-2.80621E-002	1.55497E-006	0.00000E+000	-2.80004E-002	0.00000E+000	9	...........	1488.69
	173	5.8	-2.70616E-002	1.56406E-006	0.00000E+000	-2.70002E-002	0.00000E+000	9	...........	1488.69
	174	5.83333	-2.60618E-002	1.56567E-006	0.00000E+000	-2.59999E-002	0.00000E+000	9	...........	1488.69
	175	5.86667	-2.50588E-002	1.57033E-006	0.00000E+000	-2.49996E-002	0.00000E+000	9	...........	1488.69
	176	5.9	-2.40577E-002	1.56941E-006	0.00000E+000	-2.39994E-002	0.00000E+000	9	...........	1488.69
	177	5.93333	-2.30582E-002	1.56462E-006	0.00000E+000	-2.29991E-002	0.00000E+000	9	...........	1488.69
	178	5.96667	-2.20606E-002	1.57215E-006	0.00000E+000	-2.19988E-002	0.00000E+000	9	...........	1488.69
	179	6	-2.10583E-002	1.58458E-006	0.00000E+000	-2.09986E-002	0.00000E+000	9	...........	1488.69
	180	6.03333	-2.00572E-002	1.58752E-006	0.00000E+000	-1.99983E-002	0.00000E+000	9	...........	1488.69
	181	6.06667	-1.90557E-002	1.60255E-006	0.00000E+000	-1.89980E-002	0.00000E+000	9	...........	1488.69
	182	6.1	-1.80543E-002	1.59928E-006	0.00000E+000	-1.79978E-002	0.00000E+000	9	...........	1488.69
	183	6.13333	-1.70544E-002	1.59936E-006	0.00000E+000	-1.69975E-002	0.00000E+000	9	...........	1488.69
	184	6.16667	-1.60560E-002	1.60372E-006	0.00000E+000	-1.59972E-002	0.00000E+000	9	...........	1488.69
	185	6.2	-1.50542E-002	1.60270E-006	0.00000E+000	-1.49970E-002	0.00000E+000	9	...........	1488.69
	186	6.23333	-1.40530E-002	1.61400E-006	0.00000E+000	-1.39967E-002	0.00000E+000	9	...........	1488.69
	187	6.26667	-1.30519E-002	1.62048E-006	0.00000E+000	-1.29964E-002	0.00000E+000	9	...........	1488.69
	188	6.3	-1.20513E-002	1.62293E-006	0.00000E+000	-1.19962E-002	0.00000E+000	9	...........	1488.69
	189	6.33333	-1.10497E-002	1.62091E-006	0.00000E+000	-1.09959E-002	0.00000E+000	9	...........	1488.69
	190	6.36667	-1.00489E-002	1.63207E-006	0.00000E+000	-9.99562E-003	0.00000E+000	9	...........	1488.69
	191	6.4	-9.04930E-003	1.63938E-006	0.00000E+000	-8.99535E-003	0.00000E+000	9	...........	1488.69
	192	6.43333	-8.04986E-003	1.63946E-006	0.00000E+000	-7.99508E-003	0.00000E+000	9	...........	1488.69
	193	6.46667	-7.04930E-003	1.64512E-006	0.00000E+000	-6.99481E-003	0.00000E+000	9	...........	1488.84
	194	6.5	-6.05082E-003	1.65302E-006	0.00000E+000	-5.99455E-003	0.00000E+000	9	...........	1489.06
	195	6.53333	-5.04725E-003	1.65148E-006	0.00000E+000	-4.99428E-003	0.00000E+000	9	...........	1489.06
	196	6.56667	-4.04580E-003	1.66391E-006	0.00000E+000	-3.99401E-003	0.00000E+000	9	...........	1489.06
	197	6.6	-3.05992E-003	1.66028E-006	0.00000E+000	-3.00625E-003	0.00000E+000	9	...........	1489.06
	198	6.63333	-2.05897E-003	1.66967E-006	0.00000E+000	-2.00598E-003	0.00000E+000	9	...........	1489.06
	199	6.66667	-1.05869E-003	1.68199E-006	0.00000E+000	-1.00572E-003	0.00000E+000	9	...........	1489.06
	200	6.7	-5.76455E-005	1.68556E-006	0.00000E+000	-5.44637E-006	0.00000E+000	9	...........	1489.06
	201	6.73333	-1.04665E-003	2.99491E-007	0.00000E+000	-1.00572E-003	0.00000E+000	9	...........	1489.06
	202	6.76667	-2.04692E-003	2.37783E-007	0.00000E+000	-2.00598E-003	0.00000E+000	9	...........	1489.06
	203	6.8	-3.04717E-003	2.02221E-007	0.00000E+000	-3.00625E-003	0.00000E+000	9	...........	1489.06
	204	6.83333	-4.03213E-003	1.81468E-007	0.00000E+000	-3.99401E-003	0.00000E+000	9	...........	1489.06
	205	6.86667	-5.03300E-003	1.46707E-007	0.00000E+000	-4.99428E-003	0.00000E+000	9	...........	1489.06
	206	6.9	-6.03555E-003	1.26171E-007	0.00000E+000	-5.99455E-003	0.00000E+000	9	...........	1489.06
	207	6.93333	-7.03628E-003	1.02998E-007	0.00000E+000	-6.99481E-003	0.00000E+000	9	...........	1489.06
	208	6.96667	-8.03517E-003	8.72200E-008	0.00000E+000	-7.99508E-003	0.00000E+000	9	...........	1489.06
	209	7	-9.03656E-003	6.58995E-008	0.00000E+000	-8.99535E-003	0.00000E+000	9	...........	1489.06
	210	7.03333	-1.00358E-002	5.49470E-008	0.00000E+000	-9.99562E-003	0.00000E+000	9	...........	1489.06
	211	7.06667	-1.10374E-002	4.83354E-008	0.00000E+000	-1.09959E-002	0.00000E+000	9	...........	1489.06
	212	7.1	-1.20388E-002	3.22908E-008	0.00000E+000	-1.19962E-002	0.00000E+000	9	...........	1489.06
	213	7.13333	-1.30391E-002	2.13551E-008	0.00000E+000	-1.29964E-002	0.00000E+000	9	...........	1489.06
	214	7.16667	-1.40401E-002	1.12040E-008	0.00000E+000	-1.39967E-002	0.00000E+000	9	...........	1489.06
	215	7.2	-1.50418E-002	9.02662E-010	0.00000E+000	-1.49970E-002	0.00000E+000	9	...........	1489.06
	216	7.23333	-1.60420E-002	-7.21150E-009	0.00000E+000	-1.59972E-002	0.00000E+000	9	...........	1489.06
	217	7.26667	-1.70415E-002	-1.44575E-008	0.00000E+000	-1.69975E-002	0.00000E+000	9	...........	1489.06
	218	7.3	-1.80407E-002	-2.46252E-008	0.00000E+000	-1.79978E-002	0.00000E+000	9	...........	1489.06
	219	7.33333	-1.90423E-002	-3.60118E-008	0.00000E+000	-1.89980E-002	0.00000E+000	9	...........	1489.06
	220	7.36667	-2.00441E-002	-3.97349E-008	0.00000E+000	-1.99983E-002	0.00000E+000	9	...........	1489.06
	221	7.4	-2.10451E-002	-5.01698E-008	0.00000E+000	-2.09986E-002	0.00000E+000	9	...........	1489.06
	222	7.43333	-2.20464E-002	-6.13560E-008	0.00000E+000	-2.19988E-002	0.00000E+000	9	...........	1489.06
	223	7.46667	-2.30459E-002	-6.95870E-008	0.00000E+000	-2.29991E-002	0.00000E+000	9	...........	1488.91
	224	7.5	-2.40451E-002	-8.02724E-008	0.00000E+000	-2.39994E-002	0.00000E+000	9	...........	1488.69
	225	7.53333	-2.50468E-002	-8.86537E-008	0.00000E+000	-2.49996E-002	0.00000E+000	9	...........	1488.69
	226	7.56667	-2.60501E-002	-9.18259E-008	0.00000E+000	-2.59999E-002	0.00000E+000	9	...........	1488.69
	227	7.6	-2.70497E-002	-1.03847E-007	0.00000E+000	-2.70002E-002	0.00000E+000	9	...........	1488.69
	228	7.63333	-2.80486E-002	-1.11627E-007	0.00000E+000	-2.80004E-002	0.00000E+000	9	...........	1488.69
	229	7.66667	-2.90504E-002	-1.13414E-007	0.00000E+000	-2.90007E-002	0.00000E+000	9	...........	1488.69
	230	7.7	-3.00502E-002	-1.26520E-007	0.00000E+000	-3.00010E-002	0.00000E+000	9	...........	1488.69
	231	7.73333	-3.10512E-002	-1.28540E-007	0.00000E+000	-3.10012E-002	0.00000E+000	9	...........	1488.69
	232	7.76667	-3.20514E-002	-1.39843E-007	0.00000E+000	-3.20015E-002	0.00000E+000	9	...........	1488.69
	233	7.8	-3.30513E-002	-1.43232E-007	0.00000E+000	-3.30018E-002	0.00000E+000	9	...........	1488.69
	234	7.83333	-3.40526E-002	-1.51914E-007	0.00000E+000	-3.40020E-002	0.00000E+000	9	...........	1488.69
	235	7.86667	-3.50542E-002	-1.49527E-007	0.00000E+000	-3.50023E-002	0.00000E+000	9	...........	1488.69
	236	7.9	-3.60517E-002	-1.58058E-007	0.00000E+000	-3.60026E-002	0.00000E+000	9	...........	1488.69
	237	7.93333	-3.70531E-002	-1.75388E-007	0.00000E+000	-3.70028E-002	0.00000E+000	9	...........	1488.69
	238	7.96667	-3.80548E-002	-1.74186E-007	0.00000E+000	-3.80031E-002	0.00000E+000	9	...........	1488.69
	239	8	-3.90564E-002	-1.78778E-007	0.00000E+000	-3.90034E-002	0.00000E+000	9	...........	1488.69
	240	8.03333	-4.00569E-002	-1.83169E-007	0.00000E+000	-4.00036E-002	0.00000E+000	9	...........	1488.69
	241	8.06667	-4.10551E-002	-1.83920E-007	0.00000E+000	-4.10039E-002	0.00000E+000	9	...........	1488.69
	242	8.1	-4.20565E-002	-1.87626E-007	0.00000E+000	-4.20042E-002	0.00000E+000	9	...........	1488.69
	243	8.13333	-4.30567E-002	-1.93670E-007	0.00000E+000	-4.30044E-002	0.00000E+000	9	...........	1488.69
	244	8.16667	-4.40602E-002	-1.99781E-007	0.00000E+000	-4.40047E-002	0.00000E+000	9	...........	1488.69
	245	8.2	-4.50603E-002	-2.09197E-007	0.00000E+000	-4.50050E-002	0.00000E+000	9	...........	1488.69
	246	8.23333	-4.60599E-002	-2.09264E-007	0.00000E+000	-4.60052E-002	0.00000E+000	9	...........	1488.69
	247	8.26667	-4.70617E-002	-2.12687E-007	0.00000E+000	-4.70055E-002	0.00000E+000	9	...........	1488.69
	248	8.3	-4.80618E-002	-2.23456E-007	0.00000E+000	-4.80058E-002	0.00000E+000	9	...........	1488.69
	249	8.33333	-4.90585E-002	-2.29533E-007	0.00000E+000	-4.90060E-002	0.00000E+000	9	...........	1488.69
	250	8.36667	-5.00594E-002	-2.35927E-007	0.00000E+000	-5.00063E-002	0.00000E+000	9	...........	1488.69
	251	8.4	-5.10485E-002	-2.25893E-007	0.00000E+000	-5.09941E-002	0.00000E+000	9	...........	1488.69
	252	8.43333	-5.20487E-002	-2.46312E-007	0.00000E+000	-5.19943E-002	0.00000E+000	9	...........	1488.69
	253	8.46667	-5.30498E-002	-2.44275E-007	0.00000E+000	-5.29946E-002	0.00000E+000	9	...........	1488.85
	254	8.5	-5.40496E-002	-2.50570E-007	0.00000E+000	-5.39949E-002	0.00000E+000	9	...........	1489.06
	255	8.53333	-5.50511E-002	-2.59836E-007	0.00000E+000	-5.49951E-002	0.00000E+000	9	...........	1489.06
	256	8.56667	-5.60488E-002	-2.60136E-007	0.00000E+000	-5.59954E-002	0.00000E+000	9	...........	1489.06
	257	8.6	-5.70515E-002	-2.70087E-007	0.00000E+000	-5.69957E-002	0.00000E+000	9	...........	1489.06
	258	8.63333	-5.80528E-002	-2.73176E-007	0.00000E+000	-5.79959E-002	0.00000E+000	9	...........	1489.06
	259	8.66667	-5.90535E-002	-2.81390E-007	0.00000E+000	-5.89962E-002	0.00000E+000	9	...........	1489.06
	260	8.7	-6.00547E-002	-2.86850E-007	0.00000E+000	-5.99965E-002	0.00000E+000	9	...........	1489.06
	261	8.73333	-6.10541E-002	-2.93428E-007	0.00000E+000	-6.09967E-002	0.00000E+000	9	...........	1489.06
	262	8.76667	-6.20549E-002	-2.91675E-007	0.00000E+000	-6.19970E-002	0.00000E+000	9	...........	1489.06
	263	8.8	-6.30573E-002	-3.02627E-007	0.00000E+000	-6.29973E-002	0.00000E+000	9	...........	1489.06
	264	8.83333	-6.40550E-002	-3.06233E-007	0.00000E+000	-6.39976E-002	0.00000E+000	9	...........	1489.06
	265	8.86667	-6.50585E-002	-3.04163E-007	0.00000E+000	-6.49978E-002	0.00000E+000	9	...........	1489.06
	266	8.9	-6.60582E-002	-3.14331E-007	0.00000E+000	-6.59981E-002	0.00000E+000	9	...........	1489.06
	267	8.93333	-6.70589E-002	-3.18822E-007	0.00000E+000	-6.69984E-002	0.00000E+000	9	...........	1489.06
	268	8.96667	-6.80591E-002	-3.19306E-007	0.00000E+000	-6.79986E-002	0.00000E+000	9	...........	1489.06
	269	9	-6.90573E-002	-3.26970E-007	0.00000E+000	-6.89989E-002	0.00000E+000	9	...........	1489.06
	270	9.03333	-7.00585E-002	-3.35000E-007	0.00000E+000	-6.99992E-002	0.00000E+000	9	...........	1489.06
	271	9.06667	-7.10620E-002	-3.43348E-007	0.00000E+000	-7.09994E-002	0.00000E+000	9	...........	1489.06
	272	9.1	-7.20618E-002	-3.42630E-007	0.00000E+000	-7.19997E-002	0.00000E+000	9	...........	1489.06
	273	9.13333	-7.30610E-002	-3.50661E-007	0.00000E+000	-7.30000E-002	0.00000E+000	9	...........	1489.06
	274	9.16667	-7.40620E-002	-3.54134E-007	0.00000E+000	-7.40002E-002	0.00000E+000	9	...........	1489.06
	275	9.2	-7.50611E-002	-3.53950E-007	0.00000E+000	-7.50005E-002	0.00000E+000	9	...........	1489.06
	276	9.23333	-7.60623E-002	-3.61497E-007	0.00000E+000	-7.60008E-002	0.00000E+000	9	...........	1489.06
	277	9.26667	-7.70617E-002	-3.65353E-007	0.00000E+000	-7.70010E-002	0.00000E+000	9	...........	1489.06
	278	9.3	-7.80651E-002	-3.70162E-007	0.00000E+000	-7.80013E-002	0.00000E+000	9	...........	1489.06
	279	9.33333	-7.90652E-002	-3.74887E-007	0.00000E+000	-7.90016E-002	0.00000E+000	9	...........	1489.06
	280	9.36667	-8.00675E-002	-3.78994E-007	0.00000E+000	-8.00018E-002	0.00000E+000	9	...........	1489.06
	281	9.4	-8.10655E-002	-3.79795E-007	0.00000E+000	-8.10021E-002	0.00000E+000	9	...........	1489.06
	282	9.43333	-8.20641E-002	-3.85572E-007	0.00000E+000	-8.20024E-002	0.00000E+000	9	...........	1489.06
	283	9.46667	-8.30635E-002	-3.91599E-007	0.00000E+000	-8.30026E-002	0.00000E+000	9	...........	1488.90
	284	9.5	-8.40638E-002	-3.92851E-007	0.00000E+000	-8.40029E-002	0.00000E+000	9	...........	1488.69
	285	9.5333	-8.50645E-002	-3.95456E-007	0.00000E+000	-8.50032E-002	0.00000E+000	9	...........	1488.69
	286	9.5667	-8.60640E-002	-4.01667E-007	0.00000E+000	-8.60034E-002	0.00000E+000	9	...........	1488.69
	287	9.6	-8.70643E-002	-4.06893E-007	0.00000E+000	-8.70037E-002	0.00000E+000	9	...........	1488.69
	288	9.6333	-8.80652E-002	-4.11784E-007	0.00000E+000	-8.80040E-002	0.00000E+000	9	...........	1488.69
	289	9.6667	-8.90664E-002	-4.14339E-007	0.00000E+000	-8.90042E-002	0.00000E+000	9	...........	1488.69
	290	9.7	-9.00672E-002	-4.20650E-007	0.00000E+000	-9.00045E-002	0.00000E+000	9	...........	1488.69
	291	9.7333	-9.10685E-002	-4.22186E-007	0.00000E+000	-9.10048E-002	0.00000E+000	9	...........	1488.69
	292	9.7667	-9.20684E-002	-4.27879E-007	0.00000E+000	-9.20050E-002	0.00000E+000	9	...........	1488.69
	293	9.8	-9.30691E-002	-4.27111E-007	0.00000E+000	-9.30053E-002	0.00000E+000	9	...........	1488.69
	294	9.8333	-9.40679E-002	-4.32804E-007	0.00000E+000	-9.40056E-002	0.00000E+000	9	...........	1488.69
	295	9.8667	-9.50671E-002	-4.42521E-007	0.00000E+000	-9.50058E-002	0.00000E+000	9	...........	1488.69
	296	9.9	-9.60697E-002	-4.38431E-007	0.00000E+000	-9.60061E-002	0.00000E+000	9	...........	1488.69
	297	9.9333	-9.70590E-002	-4.34808E-007	0.00000E+000	-9.69939E-002	0.00000E+000	9	...........	1488.69
	298	9.9667	-9.80602E-002	-4.46445E-007	0.00000E+000	-9.79941E-002	0.00000E+000	9	...........	1488.69
	299	10	-9.90614E-002	-4.47313E-007	0.00000E+000	-9.89944E-002	0.00000E+000	9	...........	1488.69
	300	10.0333	-1.00060E-001	-4.50502E-007	0.00000E+000	-9.99947E-002	0.00000E+000	9	...........	1488.69
	301	10.0667	-1.01058E-001	-4.58433E-007	0.00000E+000	-1.00995E-001	0.00000E+000	9	...........	1488.69
	302	10.1	-1.02060E-001	-4.58149E-007	0.00000E+000	-1.01995E-001	0.00000E+000	9	...........	1488.69
	303	10.1333	-1.03062E-001	-4.65645E-007	0.00000E+000	-1.02995E-001	0.00000E+000	9	...........	1488.69
	304	10.1667	-1.04064E-001	-4.74260E-007	0.00000E+000	-1.03996E-001	0.00000E+000	9	...........	1488.69
	305	10.2	-1.05062E-001	-4.76514E-007	0.00000E+000	-1.04996E-001	0.00000E+000	9	...........	1488.69
	306	10.2333	-1.06062E-001	-4.84812E-007	0.00000E+000	-1.05996E-001	0.00000E+000	9	...........	1488.69
	307	10.2667	-1.07059E-001	-4.85213E-007	0.00000E+000	-1.06997E-001	0.00000E+000	9	...........	1488.69
	308	10.3	-1.08060E-001	-4.91941E-007	0.00000E+000	-1.07997E-001	0.00000E+000	9	...........	1488.69
	309	10.3333	-1.09062E-001	-4.95814E-007	0.00000E+000	-1.08997E-001	0.00000E+000	9	...........	1488.69
	310	10.3667	-1.10061E-001	-4.98970E-007	0.00000E+000	-1.09997E-001	0.00000E+000	9	...........	1488.69
	311	10.4	-1.11063E-001	-5.01658E-007	0.00000E+000	-1.10998E-001	0.00000E+000	9	...........	1488.69
	312	10.4333	-1.12064E-001	-5.10590E-007	0.00000E+000	-1.11998E-001	0.00000E+000	9	...........	1488.69
	313	10.4667	-1.13061E-001	-5.10023E-007	0.00000E+000	-1.12998E-001	0.00000E+000	9	...........	1488.90
	314	10.5	-1.14062E-001	-5.08871E-007	0.00000E+000	-1.13998E-001	0.00000E+000	9	...........	1489.15
	315	10.5333	-1.15064E-001	-5.15449E-007	0.00000E+000	-1.14999E-001	0.00000E+000	9	...........	1489.15
	316	10.5667	-1.16065E-001	-5.17335E-007	0.00000E+000	-1.15999E-001	0.00000E+000	9	...........	1489.15
	317	10.6	-1.17066E-001	-5.23112E-007	0.00000E+000	-1.16999E-001	0.00000E+000	9	...........	1489.15
	318	10.6333	-1.18065E-001	-5.30742E-007	0.00000E+000	-1.17999E-001	0.00000E+000	9	...........	1489.15
	319	10.6667	-1.19067E-001	-5.30492E-007	0.00000E+000	-1.19000E-001	0.00000E+000	9	...........	1489.15
	320	10.7	-1.20065E-001	-5.31961E-007	0.00000E+000	-1.20000E-001	0.00000E+000	9	...........	1489.15
	321	10.7333	-1.21067E-001	-5.36235E-007	0.00000E+000	-1.21000E-001	0.00000E+000	9	...........	1489.15
	322	10.7667	-1.22068E-001	-5.45384E-007	0.00000E+000	-1.22001E-001	0.00000E+000	9	...........	1489.15
	323	10.8	-1.23068E-001	-5.43381E-007	0.00000E+000	-1.23001E-001	0.00000E+000	9	...........	1489.15
	324	10.8333	-1.24068E-001	-5.51962E-007	0.00000E+000	-1.24001E-001	0.00000E+000	9	...........	1489.15
	325	10.8667	-1.25069E-001	-5.63983E-007	0.00000E+000	-1.25001E-001	0.00000E+000	9	...........	1489.15
	326	10.9	-1.26068E-001	-5.62948E-007	0.00000E+000	-1.26002E-001	0.00000E+000	9	...........	1489.15
	327	10.9333	-1.27068E-001	-5.71029E-007	0.00000E+000	-1.27002E-001	0.00000E+000	9	...........	1489.15
	328	10.9667	-1.28071E-001	-5.77724E-007	0.00000E+000	-1.28002E-001	0.00000E+000	9	...........	1489.15
	329	11	-1.29074E-001	-5.78910E-007	0.00000E+000	-1.29002E-001	0.00000E+000	9	...........	1489.15
	330	11.0333	-1.30073E-001	-5.86489E-007	0.00000E+000	-1.30003E-001	0.00000E+000	9	...........	1489.15
	331	11.0667	-1.31073E-001	-5.88810E-007	0.00000E+000	-1.31003E-001	0.00000E+000	9	...........	1489.15
	332	11.1	-1.32071E-001	-5.91448E-007	0.00000E+000	-1.32003E-001	0.00000E+000	9	...........	1489.15
	333	11.1333	-1.33071E-001	-5.99028E-007	0.00000E+000	-1.33004E-001	0.00000E+000	9	...........	1489.15
	334	11.1667	-1.34074E-001	-6.06942E-007	0.00000E+000	-1.34004E-001	0.00000E+000	9	...........	1489.15
	335	11.2	-1.35073E-001	-6.08227E-007	0.00000E+000	-1.35004E-001	0.00000E+000	9	...........	1489.15
	336	11.2333	-1.36073E-001	-6.11066E-007	0.00000E+000	-1.36004E-001	0.00000E+000	9	...........	1489.15
	337	11.2667	-1.37073E-001	-6.10748E-007	0.00000E+000	-1.37005E-001	0.00000E+000	9	...........	1489.15
	338	11.3	-1.38074E-001	-6.16091E-007	0.00000E+000	-1.38005E-001	0.00000E+000	9	...........	1489.15
	339	11.3333	-1.39074E-001	-6.25140E-007	0.00000E+000	-1.39005E-001	0.00000E+000	9	...........	1489.15
	340	11.3667	-1.40074E-001	-6.29548E-007	0.00000E+000	-1.40005E-001	0.00000E+000	9	...........	1489.15
	341	11.4	-1.41074E-001	-6.35375E-007	0.00000E+000	-1.41006E-001	0.00000E+000	9	...........	1489.15
	342	11.4333	-1.42076E-001	-6.42888E-007	0.00000E+000	-1.42006E-001	0.00000E+000	9	...........	1489.15
	343	11.4667	-1.43076E-001	-6.47229E-007	0.00000E+000	-1.43006E-001	0.00000E+000	9	...........	1488.94
	344	11.5	-1.44064E-001	-6.42020E-007	0.00000E+000	-1.43994E-001	0.00000E+000	9	...........	1488.69
	345	11.5333	-1.45063E-001	-6.56946E-007	0.00000E+000	-1.44994E-001	0.00000E+000	9	...........	1488.69
	346	11.5667	-1.46064E-001	-6.58348E-007	0.00000E+000	-1.45994E-001	0.00000E+000	9	...........	1488.69
	347	11.6	-1.47065E-001	-6.66112E-007	0.00000E+000	-1.46995E-001	0.00000E+000	9	...........	1488.69
	348	11.6333	-1.48066E-001	-6.73024E-007	0.00000E+000	-1.47995E-001	0.00000E+000	9	...........	1488.69
	349	11.6667	-1.49066E-001	-6.83475E-007	0.00000E+000	-1.48995E-001	0.00000E+000	9	...........	1488.69
	350	11.7	-1.50067E-001	-6.90004E-007	0.00000E+000	-1.49996E-001	0.00000E+000	9	...........	1488.69
	351	11.7333	-1.51066E-001	-6.93710E-007	0.00000E+000	-1.50996E-001	0.00000E+000	9	...........	1488.69
	352	11.7667	-1.52065E-001	-6.89135E-007	0.00000E+000	-1.51996E-001	0.00000E+000	9	...........	1488.69
	353	11.8	-1.53065E-001	-6.98802E-007	0.00000E+000	-1.52996E-001	0.00000E+000	9	...........	1488.69
	354	11.8333	-1.54065E-001	-7.09070E-007	0.00000E+000	-1.53997E-001	0.00000E+000	9	...........	1488.69
	355	11.8667	-1.55068E-001	-7.14146E-007	0.00000E+000	-1.54997E-001	0.00000E+000	9	...........	1488.69
	356	11.9	-1.56069E-001	-7.16483E-007	0.00000E+000	-1.55997E-001	0.00000E+000	9	...........	1488.69
	357	11.9333	-1.57069E-001	-7.24347E-007	0.00000E+000	-1.56997E-001	0.00000E+000	9	...........	1488.69
	358	11.9667	-1.58069E-001	-7.27936E-007	0.00000E+000	-1.57998E-001	0.00000E+000	9	...........	1488.69
	359	12	-1.59066E-001	-7.35282E-007	0.00000E+000	-1.58998E-001	0.00000E+000	9	...........	1488.69
	360	12.0333	-1.60069E-001	-7.46001E-007	0.00000E+000	-1.59998E-001	0.00000E+000	9	...........	1488.69
	361	12.0667	-1.61070E-001	-7.53798E-007	0.00000E+000	-1.60998E-001	0.00000E+000	9	...........	1488.69
	362	12.1	-1.62069E-001	-7.58172E-007	0.00000E+000	-1.61999E-001	0.00000E+000	9	...........	1488.69
	363	12.1333	-1.63071E-001	-7.70193E-007	0.00000E+000	-1.62999E-001	0.00000E+000	9	...........	1488.69
	364	12.1667	-1.64070E-001	-7.70511E-007	0.00000E+000	-1.63999E-001	0.00000E+000	9	...........	1488.69
	365	12.2	-1.65070E-001	-7.73683E-007	0.00000E+000	-1.65000E-001	0.00000E+000	9	...........	1488.69
	366	12.2333	-1.66070E-001	-7.87424E-007	0.00000E+000	-1.66000E-001	0.00000E+000	9	...........	1488.69
	367	12.2667	-1.67072E-001	-7.96823E-007	0.00000E+000	-1.67000E-001	0.00000E+000	9	...........	1488.69
	368	12.3	-1.68071E-001	-7.96389E-007	0.00000E+000	-1.68000E-001	0.00000E+000	9	...........	1488.69
	369	12.3333	-1.69071E-001	-8.06941E-007	0.00000E+000	-1.69001E-001	0.00000E+000	9	...........	1488.69
	370	12.3667	-1.70072E-001	-8.15639E-007	0.00000E+000	-1.70001E-001	0.00000E+000	9	...........	1488.69
	371	12.4	-1.71073E-001	-8.22919E-007	0.00000E+000	-1.71001E-001	0.00000E+000	9	...........	1488.69
	372	12.4333	-1.72074E-001	-8.29931E-007	0.00000E+000	-1.72001E-001	0.00000E+000	9	...........	1488.69
[...]
	1009	33.6667	-9.03689E-003	4.63821E-008	0.00000E+000	-8.99535E-003	0.00000E+000	9	...........	1488.69
	1010	33.7	-1.00368E-002	3.06880E-008	0.00000E+000	-9.99562E-003	0.00000E+000	9	...........	1488.69
	1011	33.7333	-1.10375E-002	2.06705E-008	0.00000E+000	-1.09959E-002	0.00000E+000	9	...........	1488.69
	1012	33.7667	-1.20390E-002	9.33407E-009	0.00000E+000	-1.19962E-002	0.00000E+000	9	...........	1488.69
	1013	33.8	-1.30392E-002	-3.27128E-009	0.00000E+000	-1.29964E-002	0.00000E+000	9	...........	1488.69
	1014	33.8333	-1.40403E-002	-9.99972E-009	0.00000E+000	-1.39967E-002	0.00000E+000	9	...........	1488.69
	1015	33.8667	-1.50405E-002	-1.73625E-008	0.00000E+000	-1.49970E-002	0.00000E+000	9	...........	1488.69
	1016	33.9	-1.60416E-002	-2.73967E-008	0.00000E+000	-1.59972E-002	0.00000E+000	9	...........	1488.69
	1017	33.9333	-1.70404E-002	-3.62455E-008	0.00000E+000	-1.69975E-002	0.00000E+000	9	...........	1488.69
	1018	33.9667	-1.80400E-002	-5.39097E-008	0.00000E+000	-1.79978E-002	0.00000E+000	9	...........	1488.69
	1019	34	-1.90427E-002	-5.70151E-008	0.00000E+000	-1.89980E-002	0.00000E+000	9	...........	1488.69
	1020	34.0333	-2.00440E-002	-6.57303E-008	0.00000E+000	-1.99983E-002	0.00000E+000	9	...........	1488.69
	1021	34.0667	-2.10461E-002	-7.06055E-008	0.00000E+000	-2.09986E-002	0.00000E+000	9	...........	1488.69
	1022	34.1	-2.20482E-002	-7.44121E-008	0.00000E+000	-2.19988E-002	0.00000E+000	9	...........	1488.69
	1023	34.1333	-2.30463E-002	-8.70676E-008	0.00000E+000	-2.29991E-002	0.00000E+000	9	...........	1488.69
	1024	34.1667	-2.40462E-002	-9.46809E-008	0.00000E+000	-2.39994E-002	0.00000E+000	9	...........	1488.69
	1025	34.2	-2.50472E-002	-1.02127E-007	0.00000E+000	-2.49996E-002	0.00000E+000	9	...........	1488.69
	1026	34.2333	-2.60493E-002	-1.12111E-007	0.00000E+000	-2.59999E-002	0.00000E+000	9	...........	1488.69
	1027	34.2667	-2.70491E-002	-1.14298E-007	0.00000E+000	-2.70002E-002	0.00000E+000	9	...........	1488.69
	1028	34.3	-2.80487E-002	-1.22680E-007	0.00000E+000	-2.80004E-002	0.00000E+000	9	...........	1488.69
	1029	34.3333	-2.90508E-002	-1.30410E-007	0.00000E+000	-2.90007E-002	0.00000E+000	9	...........	1488.69
	1030	34.3667	-3.00493E-002	-1.32029E-007	0.00000E+000	-3.00010E-002	0.00000E+000	9	...........	1488.69
	1031	34.4	-3.10491E-002	-1.35402E-007	0.00000E+000	-3.10012E-002	0.00000E+000	9	...........	1488.69
	1032	34.4333	-3.20504E-002	-1.47473E-007	0.00000E+000	-3.20015E-002	0.00000E+000	9	...........	1488.69
	1033	34.4667	-3.30515E-002	-1.51096E-007	0.00000E+000	-3.30018E-002	0.00000E+000	9	...........	1488.69
	1034	34.5	-3.40517E-002	-1.53450E-007	0.00000E+000	-3.40020E-002	0.00000E+000	9	...........	1488.69
	1035	34.5333	-3.50527E-002	-1.61731E-007	0.00000E+000	-3.50023E-002	0.00000E+000	9	...........	1488.69
	1036	34.5667	-3.60501E-002	-1.68760E-007	0.00000E+000	-3.60026E-002	0.00000E+000	9	...........	1488.69
	1037	34.6	-3.70520E-002	-1.78811E-007	0.00000E+000	-3.70028E-002	0.00000E+000	9	...........	1488.69
	1038	34.6333	-3.80542E-002	-1.88027E-007	0.00000E+000	-3.80031E-002	0.00000E+000	9	...........	1488.69
	1039	34.6667	-3.90563E-002	-1.92201E-007	0.00000E+000	-3.90034E-002	0.00000E+000	9	...........	1488.69
	1040	34.7	-4.00570E-002	-1.96459E-007	0.00000E+000	-4.00036E-002	0.00000E+000	9	...........	1488.69
	1041	34.7333	-4.10555E-002	-1.95524E-007	0.00000E+000	-4.10039E-002	0.00000E+000	9	...........	1488.69
	1042	34.7667	-4.20581E-002	-2.02886E-007	0.00000E+000	-4.20042E-002	0.00000E+000	9	...........	1488.69
	1043	34.8	-4.30580E-002	-2.09364E-007	0.00000E+000	-4.30044E-002	0.00000E+000	9	...........	1488.69
	1044	34.8333	-4.40604E-002	-2.23439E-007	0.00000E+000	-4.40047E-002	0.00000E+000	9	...........	1488.69
	1045	34.8667	-4.50620E-002	-2.24674E-007	0.00000E+000	-4.50050E-002	0.00000E+000	9	...........	1488.69
	1046	34.9	-4.60605E-002	-2.33991E-007	0.00000E+000	-4.60052E-002	0.00000E+000	9	...........	1488.69
	1047	34.9333	-4.70633E-002	-2.36528E-007	0.00000E+000	-4.70055E-002	0.00000E+000	9	...........	1488.69
	1048	34.9667	-4.80631E-002	-2.41187E-007	0.00000E+000	-4.80058E-002	0.00000E+000	9	...........	1488.69
	1049	35	-4.90589E-002	-2.44509E-007	0.00000E+000	-4.90060E-002	0.00000E+000	9	...........	1488.69
	1050	35.0333	-5.00610E-002	-2.59051E-007	0.00000E+000	-5.00063E-002	0.00000E+000	9	...........	1488.69
	1051	35.0667	-5.10496E-002	-2.55729E-007	0.00000E+000	-5.09941E-002	0.00000E+000	9	...........	1488.69
	1052	35.1	-5.20518E-002	-2.65496E-007	0.00000E+000	-5.19943E-002	0.00000E+000	9	...........	1488.69
	1053	35.1333	-5.30523E-002	-2.72324E-007	0.00000E+000	-5.29946E-002	0.00000E+000	9	...........	1488.69
	1054	35.1667	-5.40537E-002	-2.74228E-007	0.00000E+000	-5.39949E-002	0.00000E+000	9	...........	1488.69
	1055	35.2	-5.50526E-002	-2.76832E-007	0.00000E+000	-5.49951E-002	0.00000E+000	9	...........	1488.69
	1056	35.2333	-5.60519E-002	-2.84078E-007	0.00000E+000	-5.59954E-002	0.00000E+000	9	...........	1488.69
	1057	35.2667	-5.70543E-002	-2.92242E-007	0.00000E+000	-5.69957E-002	0.00000E+000	9	...........	1488.69
	1058	35.3	-5.80545E-002	-2.91358E-007	0.00000E+000	-5.79959E-002	0.00000E+000	9	...........	1488.69
	1059	35.3333	-5.90534E-002	-3.00774E-007	0.00000E+000	-5.89962E-002	0.00000E+000	9	...........	1488.69
	1060	35.3667	-6.00549E-002	-3.02544E-007	0.00000E+000	-5.99965E-002	0.00000E+000	9	...........	1488.69
	1061	35.4	-6.10544E-002	-3.05031E-007	0.00000E+000	-6.09967E-002	0.00000E+000	9	...........	1488.69
	1062	35.4333	-6.20547E-002	-3.07502E-007	0.00000E+000	-6.19970E-002	0.00000E+000	9	...........	1488.69
	1063	35.4667	-6.30561E-002	-3.06016E-007	0.00000E+000	-6.29973E-002	0.00000E+000	9	...........	1488.69
	1064	35.5	-6.40550E-002	-3.16385E-007	0.00000E+000	-6.39976E-002	0.00000E+000	9	...........	1488.69
	1065	35.5333	-6.50596E-002	-3.19423E-007	0.00000E+000	-6.49978E-002	0.00000E+000	9	...........	1488.69
	1066	35.5667	-6.60586E-002	-3.22362E-007	0.00000E+000	-6.59981E-002	0.00000E+000	9	...........	1488.69
	1067	35.6	-6.70597E-002	-3.22362E-007	0.00000E+000	-6.69984E-002	0.00000E+000	9	...........	1488.69
	1068	35.6333	-6.80600E-002	-3.29424E-007	0.00000E+000	-6.79986E-002	0.00000E+000	9	...........	1488.69
	1069	35.6667	-6.90593E-002	-3.28506E-007	0.00000E+000	-6.89989E-002	0.00000E+000	9	...........	1488.69
	1070	35.7	-7.00596E-002	-3.39091E-007	0.00000E+000	-6.99992E-002	0.00000E+000	9	...........	1488.69
	1071	35.7333	-7.10617E-002	-3.39658E-007	0.00000E+000	-7.09994E-002	0.00000E+000	9	...........	1488.69
	1072	35.7667	-7.20620E-002	-3.45435E-007	0.00000E+000	-7.19997E-002	0.00000E+000	9	...........	1488.69
	1073	35.8	-7.30613E-002	-3.42881E-007	0.00000E+000	-7.30000E-002	0.00000E+000	9	...........	1488.69
	1074	35.8333	-7.40611E-002	-3.52748E-007	0.00000E+000	-7.40002E-002	0.00000E+000	9	...........	1488.69
	1075	35.8667	-7.50621E-002	-3.55536E-007	0.00000E+000	-7.50005E-002	0.00000E+000	9	...........	1488.69
	1076	35.9	-7.60623E-002	-3.60044E-007	0.00000E+000	-7.60008E-002	0.00000E+000	9	...........	1488.69
	1077	35.9333	-7.70624E-002	-3.61230E-007	0.00000E+000	-7.70010E-002	0.00000E+000	9	...........	1488.69
	1078	35.9667	-7.80641E-002	-3.64819E-007	0.00000E+000	-7.80013E-002	0.00000E+000	9	...........	1488.69
	1079	36	-7.90662E-002	-3.66689E-007	0.00000E+000	-7.90016E-002	0.00000E+000	9	...........	1488.69
	1080	36.0333	-8.00674E-002	-3.75805E-007	0.00000E+000	-8.00018E-002	0.00000E+000	9	...........	1488.69
	1081	36.0667	-8.10653E-002	-3.73351E-007	0.00000E+000	-8.10021E-002	0.00000E+000	9	...........	1488.69
	1082	36.1	-8.20647E-002	-3.77024E-007	0.00000E+000	-8.20024E-002	0.00000E+000	9	...........	1488.69
	1083	36.1333	-8.30643E-002	-3.84119E-007	0.00000E+000	-8.30026E-002	0.00000E+000	9	...........	1488.69
	1084	36.1667	-8.40644E-002	-3.86574E-007	0.00000E+000	-8.40029E-002	0.00000E+000	9	...........	1488.69
	1085	36.2	-8.50650E-002	-3.89045E-007	0.00000E+000	-8.50032E-002	0.00000E+000	9	...........	1488.69
	1086	36.2333	-8.60642E-002	-4.00331E-007	0.00000E+000	-8.60034E-002	0.00000E+000	9	...........	1488.69
	1087	36.2667	-8.70640E-002	-4.03203E-007	0.00000E+000	-8.70037E-002	0.00000E+000	9	...........	1488.69
	1088	36.3	-8.80641E-002	-4.12068E-007	0.00000E+000	-8.80040E-002	0.00000E+000	9	...........	1488.69
	1089	36.3333	-8.90657E-002	-4.14907E-007	0.00000E+000	-8.90042E-002	0.00000E+000	9	...........	1488.69
	1090	36.3667	-9.00658E-002	-4.16309E-007	0.00000E+000	-9.00045E-002	0.00000E+000	9	...........	1488.69
	1091	36.4	-9.10665E-002	-4.20783E-007	0.00000E+000	-9.10048E-002	0.00000E+000	9	...........	1488.69
	1092	36.4333	-9.20671E-002	-4.29499E-007	0.00000E+000	-9.20050E-002	0.00000E+000	9	...........	1488.69
	1093	36.4667	-9.30676E-002	-4.30350E-007	0.00000E+000	-9.30053E-002	0.00000E+000	9	...........	1488.69
	1094	36.5	-9.40669E-002	-4.32170E-007	0.00000E+000	-9.40056E-002	0.00000E+000	9	...........	1488.69
	1095	36.5333	-9.50665E-002	-4.36628E-007	0.00000E+000	-9.50058E-002	0.00000E+000	9	...........	1488.69
	1096	36.5667	-9.60700E-002	-4.39583E-007	0.00000E+000	-9.60061E-002	0.00000E+000	9	...........	1488.69
	1097	36.6	-9.70593E-002	-4.37362E-007	0.00000E+000	-9.69939E-002	0.00000E+000	9	...........	1488.69
	1098	36.6333	-9.80608E-002	-4.50435E-007	0.00000E+000	-9.79941E-002	0.00000E+000	9	...........	1488.69
	1099	36.6667	-9.90600E-002	-4.55561E-007	0.00000E+000	-9.89944E-002	0.00000E+000	9	...........	1488.69
	1100	36.7	-1.00058E-001	-4.57681E-007	0.00000E+000	-9.99947E-002	0.00000E+000	9	...........	1488.69
	1101	36.7333	-1.01058E-001	-4.57765E-007	0.00000E+000	-1.00995E-001	0.00000E+000	9	...........	1488.69
	1102	36.7667	-1.02060E-001	-4.66129E-007	0.00000E+000	-1.01995E-001	0.00000E+000	9	...........	1488.69
	1103	36.8	-1.03061E-001	-4.62122E-007	0.00000E+000	-1.02995E-001	0.00000E+000	9	...........	1488.69
	1104	36.8333	-1.04064E-001	-4.66897E-007	0.00000E+000	-1.03996E-001	0.00000E+000	9	...........	1488.69
	1105	36.8667	-1.05062E-001	-4.73375E-007	0.00000E+000	-1.04996E-001	0.00000E+000	9	...........	1488.69
	1106	36.9	-1.06062E-001	-4.71205E-007	0.00000E+000	-1.05996E-001	0.00000E+000	9	...........	1488.69
	1107	36.9333	-1.07060E-001	-4.76147E-007	0.00000E+000	-1.06997E-001	0.00000E+000	9	...........	1488.69
	1108	36.9667	-1.08061E-001	-4.86214E-007	0.00000E+000	-1.07997E-001	0.00000E+000	9	...........	1488.69
	1109	37	-1.09061E-001	-4.88752E-007	0.00000E+000	-1.08997E-001	0.00000E+000	9	...........	1488.69
	1110	37.0333	-1.10063E-001	-4.89336E-007	0.00000E+000	-1.09997E-001	0.00000E+000	9	...........	1488.69
	1111	37.0667	-1.11062E-001	-4.95197E-007	0.00000E+000	-1.10998E-001	0.00000E+000	9	...........	1488.69
	1112	37.1	-1.12064E-001	-4.96666E-007	0.00000E+000	-1.11998E-001	0.00000E+000	9	...........	1488.69
	1113	37.1333	-1.13060E-001	-5.02176E-007	0.00000E+000	-1.12998E-001	0.00000E+000	9	...........	1488.69
	1114	37.1667	-1.14061E-001	-5.03177E-007	0.00000E+000	-1.13998E-001	0.00000E+000	9	...........	1488.69
	1115	37.2	-1.15063E-001	-5.06600E-007	0.00000E+000	-1.14999E-001	0.00000E+000	9	...........	1488.69
	1116	37.2333	-1.16064E-001	-5.15733E-007	0.00000E+000	-1.15999E-001	0.00000E+000	9	...........	1488.69
	1117	37.2667	-1.17065E-001	-5.15031E-007	0.00000E+000	-1.16999E-001	0.00000E+000	9	...........	1488.69
	1118	37.3	-1.18065E-001	-5.22895E-007	0.00000E+000	-1.17999E-001	0.00000E+000	9	...........	1488.69
	1119	37.3333	-1.19065E-001	-5.29139E-007	0.00000E+000	-1.19000E-001	0.00000E+000	9	...........	1488.69
	1120	37.3667	-1.20065E-001	-5.31510E-007	0.00000E+000	-1.20000E-001	0.00000E+000	9	...........	1488.69
	1121	37.4	-1.21067E-001	-5.37220E-007	0.00000E+000	-1.21000E-001	0.00000E+000	9	...........	1488.69
	1122	37.4333	-1.22068E-001	-5.37354E-007	0.00000E+000	-1.22001E-001	0.00000E+000	9	...........	1488.69
	1123	37.4667	-1.23068E-001	-5.47004E-007	0.00000E+000	-1.23001E-001	0.00000E+000	9	...........	1488.69
	1124	37.5	-1.24068E-001	-5.49375E-007	0.00000E+000	-1.24001E-001	0.00000E+000	9	...........	1488.69
	1125	37.5333	-1.25068E-001	-5.49625E-007	0.00000E+000	-1.25001E-001	0.00000E+000	9	...........	1488.69
	1126	37.5667	-1.26067E-001	-5.54500E-007	0.00000E+000	-1.26002E-001	0.00000E+000	9	...........	1488.69
	1127	37.6	-1.27067E-001	-5.54801E-007	0.00000E+000	-1.27002E-001	0.00000E+000	9	...........	1488.69
	1128	37.6333	-1.28067E-001	-5.62765E-007	0.00000E+000	-1.28002E-001	0.00000E+000	9	...........	1488.69
	1129	37.6667	-1.29071E-001	-5.66688E-007	0.00000E+000	-1.29002E-001	0.00000E+000	9	...........	1488.69
	1130	37.7	-1.30070E-001	-5.69577E-007	0.00000E+000	-1.30003E-001	0.00000E+000	9	...........	1488.69
	1131	37.7333	-1.31071E-001	-5.79627E-007	0.00000E+000	-1.31003E-001	0.00000E+000	9	...........	1488.69
	1132	37.7667	-1.32070E-001	-5.79177E-007	0.00000E+000	-1.32003E-001	0.00000E+000	9	...........	1488.69
	1133	37.8	-1.33072E-001	-5.86339E-007	0.00000E+000	-1.33004E-001	0.00000E+000	9	...........	1488.69
	1134	37.8333	-1.34071E-001	-5.87474E-007	0.00000E+000	-1.34004E-001	0.00000E+000	9	...........	1488.69
	1135	37.8667	-1.35074E-001	-5.94971E-007	0.00000E+000	-1.35004E-001	0.00000E+000	9	...........	1488.69
	1136	37.9	-1.36072E-001	-5.97959E-007	0.00000E+000	-1.36004E-001	0.00000E+000	9	...........	1488.69
	1137	37.9333	-1.37074E-001	-6.09062E-007	0.00000E+000	-1.37005E-001	0.00000E+000	9	...........	1488.69
	1138	37.9667	-1.38073E-001	-6.14555E-007	0.00000E+000	-1.38005E-001	0.00000E+000	9	...........	1488.69
	1139	38	-1.39074E-001	-6.17494E-007	0.00000E+000	-1.39005E-001	0.00000E+000	9	...........	1488.69
	1140	38.0333	-1.40074E-001	-6.22920E-007	0.00000E+000	-1.40005E-001	0.00000E+000	9	...........	1488.69
	1141	38.0667	-1.41074E-001	-6.27427E-007	0.00000E+000	-1.41006E-001	0.00000E+000	9	...........	1488.69
	1142	38.1	-1.42077E-001	-6.31969E-007	0.00000E+000	-1.42006E-001	0.00000E+000	9	...........	1488.69
	1143	38.1333	-1.43077E-001	-6.38864E-007	0.00000E+000	-1.43006E-001	0.00000E+000	9	...........	1488.69
	1144	38.1667	-1.44064E-001	-6.30917E-007	0.00000E+000	-1.43994E-001	0.00000E+000	9	...........	1488.69
	1145	38.2	-1.45064E-001	-6.43923E-007	0.00000E+000	-1.44994E-001	0.00000E+000	9	...........	1488.69
	1146	38.2333	-1.46064E-001	-6.50785E-007	0.00000E+000	-1.45994E-001	0.00000E+000	9	...........	1488.69
	1147	38.2667	-1.47066E-001	-6.55343E-007	0.00000E+000	-1.46995E-001	0.00000E+000	9	...........	1488.69
	1148	38.3	-1.48067E-001	-6.62422E-007	0.00000E+000	-1.47995E-001	0.00000E+000	9	...........	1488.69
	1149	38.3333	-1.49068E-001	-6.68700E-007	0.00000E+000	-1.48995E-001	0.00000E+000	9	...........	1488.69
	1150	38.3667	-1.50068E-001	-6.75228E-007	0.00000E+000	-1.49996E-001	0.00000E+000	9	...........	1488.69
	1151	38.4	-1.51067E-001	-6.74343E-007	0.00000E+000	-1.50996E-001	0.00000E+000	9	...........	1488.69
	1152	38.4333	-1.52066E-001	-6.85663E-007	0.00000E+000	-1.51996E-001	0.00000E+000	9	...........	1488.69
	1153	38.4667	-1.53066E-001	-6.90471E-007	0.00000E+000	-1.52996E-001	0.00000E+000	9	...........	1488.69
	1154	38.5	-1.54067E-001	-6.97901E-007	0.00000E+000	-1.53997E-001	0.00000E+000	9	...........	1488.69
	1155	38.5333	-1.55068E-001	-7.10723E-007	0.00000E+000	-1.54997E-001	0.00000E+000	9	...........	1488.69
	1156	38.5667	-1.56070E-001	-7.12877E-007	0.00000E+000	-1.55997E-001	0.00000E+000	9	...........	1488.69
	1157	38.6	-1.57070E-001	-7.13561E-007	0.00000E+000	-1.56997E-001	0.00000E+000	9	...........	1488.69
	1158	38.6333	-1.58067E-001	-7.17151E-007	0.00000E+000	-1.57998E-001	0.00000E+000	9	...........	1488.69
	1159	38.6667	-1.59067E-001	-7.28955E-007	0.00000E+000	-1.58998E-001	0.00000E+000	9	...........	1488.69
	1160	38.7	-1.60071E-001	-7.28337E-007	0.00000E+000	-1.59998E-001	0.00000E+000	9	...........	1488.69
	1161	38.7333	-1.61071E-001	-7.35099E-007	0.00000E+000	-1.60998E-001	0.00000E+000	9	...........	1488.69
	1162	38.7667	-1.62070E-001	-7.50025E-007	0.00000E+000	-1.61999E-001	0.00000E+000	9	...........	1488.69
	1163	38.8	-1.63071E-001	-7.53631E-007	0.00000E+000	-1.62999E-001	0.00000E+000	9	...........	1488.69
	1164	38.8333	-1.64070E-001	-7.59007E-007	0.00000E+000	-1.63999E-001	0.00000E+000	9	...........	1488.69
	1165	38.8667	-1.65068E-001	-7.67388E-007	0.00000E+000	-1.65000E-001	0.00000E+000	9	...........	1488.69
	1166	38.9	-1.66069E-001	-7.73299E-007	0.00000E+000	-1.66000E-001	0.00000E+000	9	...........	1488.69
	1167	38.9333	-1.67071E-001	-7.80645E-007	0.00000E+000	-1.67000E-001	0.00000E+000	9	...........	1488.69
	1168	38.9667	-1.68071E-001	-7.86973E-007	0.00000E+000	-1.68000E-001	0.00000E+000	9	...........	1488.69
	1169	39	-1.69071E-001	-7.98443E-007	0.00000E+000	-1.69001E-001	0.00000E+000	9	...........	1488.69
	1170	39.0333	-1.70072E-001	-8.07809E-007	0.00000E+000	-1.70001E-001	0.00000E+000	9	...........	1488.69
	1171	39.0667	-1.71072E-001	-8.14905E-007	0.00000E+000	-1.71001E-001	0.00000E+000	9	...........	1488.69
	1172	39.1	-1.72073E-001	-8.24405E-007	0.00000E+000	-1.72001E-001	0.00000E+000	9	...........	1488.69
	1173	39.1333	-1.73073E-001	-8.32903E-007	0.00000E+000	-1.73002E-001	0.00000E+000	9	...........	1488.69
	1174	39.1667	-1.74072E-001	-8.44673E-007	0.00000E+000	-1.74002E-001	0.00000E+000	9	...........	1488.69
	1175	39.2	-1.75074E-001	-8.61636E-007	0.00000E+000	-1.75002E-001	0.00000E+000	9	...........	1488.69
	1176	39.2333	-1.76075E-001	-8.63940E-007	0.00000E+000	-1.76002E-001	0.00000E+000	9	...........	1488.69
	1177	39.2667	-1.77074E-001	-8.75945E-007	0.00000E+000	-1.77003E-001	0.00000E+000	9	...........	1488.69
	1178	39.3	-1.78075E-001	-8.78065E-007	0.00000E+000	-1.78003E-001	0.00000E+000	9	...........	1488.69
	1179	39.3333	-1.79076E-001	-8.84727E-007	0.00000E+000	-1.79003E-001	0.00000E+000	9	...........	1488.69
	1180	39.3667	-1.80076E-001	-8.93659E-007	0.00000E+000	-1.80004E-001	0.00000E+000	9	...........	1488.69
	1181	39.4	-1.81079E-001	-8.98100E-007	0.00000E+000	-1.81004E-001	0.00000E+000	9	...........	1488.69
	1182	39.4333	-1.82076E-001	-9.08685E-007	0.00000E+000	-1.82004E-001	0.00000E+000	9	...........	1488.69
	1183	39.4667	-1.83079E-001	-9.22660E-007	0.00000E+000	-1.83004E-001	0.00000E+000	9	...........	1488.77
	1184	39.5	-1.84076E-001	-9.32109E-007	0.00000E+000	-1.84005E-001	0.00000E+000	9	...........	1488.78
	1185	39.5333	-1.85079E-001	-9.48321E-007	0.00000E+000	-1.85005E-001	0.00000E+000	9	...........	1488.78
	1186	39.5667	-1.86077E-001	-9.57721E-007	0.00000E+000	-1.86005E-001	0.00000E+000	9	...........	1488.78
	1187	39.6	-1.87080E-001	-9.72730E-007	0.00000E+000	-1.87005E-001	0.00000E+000	9	...........	1488.78
	1188	39.6333	-1.88080E-001	-9.80561E-007	0.00000E+000	-1.88006E-001	0.00000E+000	9	...........	1488.78
	1189	39.6667	-1.89081E-001	-9.92481E-007	0.00000E+000	-1.89006E-001	0.00000E+000	9	...........	1488.78
	1190	39.7	-1.90080E-001	-1.00355E-006	0.00000E+000	-1.90006E-001	0.00000E+000	9	...........	1488.78
	1191	39.7333	-1.91067E-001	-1.00848E-006	0.00000E+000	-1.90994E-001	0.00000E+000	9	...........	1488.78
	1192	39.7667	-1.92067E-001	-1.03529E-006	0.00000E+000	-1.91994E-001	0.00000E+000	9	...........	1488.78
	1193	39.8	-1.93070E-001	-1.04597E-006	0.00000E+000	-1.92995E-001	0.00000E+000	9	...........	1488.78
	1194	39.8333	-1.94069E-001	-1.06010E-006	0.00000E+000	-1.93995E-001	0.00000E+000	9	...........	1488.78
	1195	39.8667	-1.95070E-001	-1.08107E-006	0.00000E+000	-1.94995E-001	0.00000E+000	9	...........	1488.78
	1196	39.9	-1.96070E-001	-1.09598E-006	0.00000E+000	-1.95995E-001	0.00000E+000	9	...........	1488.78
	1197	39.9333	-1.97071E-001	-1.10857E-006	0.00000E+000	-1.96996E-001	0.00000E+000	9	...........	1488.78
	1198	39.9667	-1.98073E-001	-1.12673E-006	0.00000E+000	-1.97996E-001	0.00000E+000	9	...........	1488.78
	1199	40	-1.99075E-001	-1.14708E-006	0.00000E+000	-1.98996E-001	0.00000E+000	9	...........	1488.78
	1200	40.0333	-2.00075E-001	-1.17328E-006	0.00000E+000	-1.99996E-001	0.00000E+000	9	...........	1488.78
CURVE4	TABLE
	Pt	T	Vf	Im	Vu	Sig	Ach	IERange	Over	Temp
	#	s	V vs. Ref.	A	V	V	V	#	bits	deg C
	1201	40.0667	-2.00082E-001	-2.85163E-007	0.00000E+000	-1.99996E-001	0.00000E+000	9	...........	1488.78