File: input/HER_POWROT_#2_#1.DTA
EXPLAIN
TAG	LSV
TITLE	LABEL	POWROT	Test Identifier
DATE	LABEL	17.7.2024	Date
TIME	LABEL	13:37:18	Time
NOTES	NOTES	1	Notes...

PSTAT	PSTAT	IFC1010-34090	Potentiostat
VINIT	POTEN	-6.00000E-001	F	Initial E (V)
VFINAL	POTEN	0.00000E+000	F	Final E (V)
SCANRATE	QUANT	4.99999E+000	Scan Rate (mV/s)
STEPSIZE	QUANT	1.00000E+000	Step Size (mV)
IMODE	SELECTOR	0	I/E Range Mode
IRANGE	QUANT	3.00000E+001	Max Current (mA)
AREA	QUANT	1.00000E+000	Sample Area (cm^2)
EQDELAY	QUANT	0.00000E+000	Equil. Time (s)
IRCOMP	SELECTOR	0	IRComp
PFCOR	QUANT	5.00000E+001	PF Corr. (ohm)
SAMPLINGMODE	SELECTOR	1	Sampling Mode
EOC	QUANT	0.7205974	Open Circuit (V)
ELECTRODETYPE	SELECTOR	0	Electrode Type
STRIPPING	TOGGLE	F	Used for Stripping
SEQUENCER	TOGGLE	TRUE	Run as Sequence
PSTATMODEL	IQUANT	64	Pstat Model
PSTATSECTION	LABEL	IFC1010-34090	Pstat Section
PSTATSERIALNO	LABEL	34090	Pstat Serial Number
CTRLMODE	IQUANT	1	Control Mode
ELECTROMETER	IQUANT	0	RE=0 or CS=1
IESTAB	IQUANT	2	I/E Stability
CASPEED	IQUANT	4	Control Amp Speed
CONVENTION	IQUANT	1	Current Convention
ICHRANGE	IQUANT	2	Ich Range
ICHRANGEMODE	TOGGLE	F	Ich Auto Range
ICHOFFSETENABLE	TOGGLE	F	Ich Offset Enable
ICHOFFSET	QUANT	0	Ich Offset (V)
ICHFILTER	IQUANT	3	Ich Filter
VCHRANGE	IQUANT	2	Vch Range
VCHRANGEMODE	TOGGLE	F	Vch Auto Range
VCHOFFSETENABLE	TOGGLE	F	Vch Offset Enable
VCHOFFSET	QUANT	0	Vch Offset (V)
VCHFILTER	IQUANT	3	Vch Filter
IERANGELOWERLIMIT	IQUANT	4	I/E Range Lower Limit
IERANGEMODE	TOGGLE	T	I/E AutoRange
IERANGE	IQUANT	11	I/E Range
ACHSELECT	IQUANT	0	Ach Select
ACHRANGE	IQUANT	2	Ach Range
ACHOFFSETENABLE	TOGGLE	F	Ach Offset Enable
ACHOFFSET	QUANT	0	Ach Offset (V)
ACHFILTER	IQUANT	1	Ach Filter
SENSECABLEID	IQUANT	13	Sense Cable ID
PWRCABLEID	IQUANT	13	Power Cable ID
DCCALDATE	LABEL	1/30/2024	DC Calibration Date
ACCALDATE	LABEL	1/8/2024	AC Calibration Date
FRAMEWORKVERSION	LABEL	7.10.3	Framework Version
INSTRUMENTVERSION	LABEL	4.91	Instrument Version
COMMVERSION	LABEL	3.10	Communications Version
CPUPLDVERSION	LABEL	2.22	CPU PLD Version
CTRLPLDVERSION	LABEL	0.00	CTRL PLD Version
PSTATPLDVERSION	LABEL	0.00	PSTAT PLD Version
CURVE	TABLE	601
	Pt	T	Vf	Im	Vu	Sig	Ach	IERange	Over	Cycle	Temp
	#	s	V vs. Ref.	A	V	V	V	#	bits	#	deg C
	0	0.2	-5.99894E-001	-1.04783E-002	0.00000E+000	-5.99999E-001	0.00000E+000	11	...........	0	1467.70
	2	0.6	-5.97907E-001	-1.03462E-002	0.00000E+000	-5.97999E-001	0.00000E+000	11	...........	0	1467.70
	4	1	-5.95907E-001	-1.01908E-002	0.00000E+000	-5.96000E-001	0.00000E+000	11	...........	0	1467.70
	6	1.4	-5.93897E-001	-1.01438E-002	0.00000E+000	-5.94000E-001	0.00000E+000	11	...........	0	1467.88
	8	1.8	-5.91913E-001	-1.01433E-002	0.00000E+000	-5.92000E-001	0.00000E+000	11	...........	0	1467.88
	10	2.2	-5.89914E-001	-1.00030E-002	0.00000E+000	-5.90000E-001	0.00000E+000	11	...........	0	1467.88
	12	2.6	-5.87891E-001	-9.94528E-003	0.00000E+000	-5.88001E-001	0.00000E+000	11	...........	0	1467.88
	14	3	-5.85900E-001	-9.78058E-003	0.00000E+000	-5.86001E-001	0.00000E+000	11	...........	0	1467.88
	16	3.4	-5.83895E-001	-9.65340E-003	0.00000E+000	-5.84001E-001	0.00000E+000	11	...........	0	1467.88
	18	3.8	-5.81896E-001	-9.65295E-003	0.00000E+000	-5.82001E-001	0.00000E+000	11	...........	0	1467.88
	20	4.2	-5.79900E-001	-9.53147E-003	0.00000E+000	-5.80001E-001	0.00000E+000	11	...........	0	1467.88
	22	4.6	-5.77909E-001	-9.43981E-003	0.00000E+000	-5.78001E-001	0.00000E+000	11	...........	0	1467.88
	24	5	-5.75881E-001	-9.42796E-003	0.00000E+000	-5.76002E-001	0.00000E+000	11	...........	0	1467.88
	26	5.4	-5.73888E-001	-9.38706E-003	0.00000E+000	-5.74002E-001	0.00000E+000	11	...........	0	1467.61
	28	5.8	-5.71905E-001	-9.23457E-003	0.00000E+000	-5.72002E-001	0.00000E+000	11	...........	0	1467.61
	30	6.2	-5.69913E-001	-9.09386E-003	0.00000E+000	-5.70002E-001	0.00000E+000	11	...........	0	1467.88
	32	6.6	-5.67912E-001	-9.03266E-003	0.00000E+000	-5.68003E-001	0.00000E+000	11	...........	0	1467.88
	34	7	-5.65915E-001	-8.95218E-003	0.00000E+000	-5.66003E-001	0.00000E+000	11	...........	0	1467.88
	36	7.4	-5.63892E-001	-8.84235E-003	0.00000E+000	-5.64003E-001	0.00000E+000	11	...........	0	1467.88
	38	7.8	-5.61864E-001	-8.74998E-003	0.00000E+000	-5.62003E-001	0.00000E+000	11	...........	0	1467.88
	40	8.2	-5.59876E-001	-8.64825E-003	0.00000E+000	-5.60003E-001	0.00000E+000	11	...........	0	1467.88
	42	8.6	-5.57884E-001	-8.65089E-003	0.00000E+000	-5.58004E-001	0.00000E+000	11	...........	0	1467.88
	44	9	-5.55874E-001	-8.66681E-003	0.00000E+000	-5.56004E-001	0.00000E+000	11	...........	0	1467.88
	46	9.4	-5.53904E-001	-8.53044E-003	0.00000E+000	-5.54004E-001	0.00000E+000	11	...........	0	1467.88
	48	9.8	-5.51887E-001	-8.43847E-003	0.00000E+000	-5.52004E-001	0.00000E+000	11	...........	0	1467.88
	50	10.2	-5.49874E-001	-8.37013E-003	0.00000E+000	-5.50004E-001	0.00000E+000	11	...........	0	1467.70
	52	10.6	-5.47877E-001	-8.40005E-003	0.00000E+000	-5.48005E-001	0.00000E+000	11	...........	0	1467.70
	54	11	-5.45882E-001	-8.37287E-003	0.00000E+000	-5.46005E-001	0.00000E+000	11	...........	0	1467.70
	56	11.4	-5.43882E-001	-8.31098E-003	0.00000E+000	-5.44005E-001	0.00000E+000	11	...........	0	1467.88
	58	11.8	-5.41882E-001	-8.21427E-003	0.00000E+000	-5.42005E-001	0.00000E+000	11	...........	0	1467.88
	60	12.2	-5.39896E-001	-8.10596E-003	0.00000E+000	-5.40005E-001	0.00000E+000	11	...........	0	1467.88
	62	12.6	-5.37875E-001	-7.96802E-003	0.00000E+000	-5.38006E-001	0.00000E+000	10	...........	0	1467.88
	64	13	-5.35856E-001	-7.89481E-003	0.00000E+000	-5.36006E-001	0.00000E+000	10	...........	0	1467.88
	66	13.4	-5.33862E-001	-7.81039E-003	0.00000E+000	-5.34006E-001	0.00000E+000	10	...........	0	1467.88
	68	13.8	-5.31870E-001	-7.69790E-003	0.00000E+000	-5.32006E-001	0.00000E+000	10	...........	0	1467.88
	70	14.2	-5.29862E-001	-7.59707E-003	0.00000E+000	-5.30006E-001	0.00000E+000	10	...........	0	1467.88
	72	14.6	-5.27842E-001	-7.63024E-003	0.00000E+000	-5.27994E-001	0.00000E+000	10	...........	0	1467.88
	74	15	-5.25870E-001	-7.54893E-003	0.00000E+000	-5.25994E-001	0.00000E+000	10	...........	0	1467.88
	76	15.4	-5.23848E-001	-7.43738E-003	0.00000E+000	-5.23995E-001	0.00000E+000	10	...........	0	1467.79
	78	15.8	-5.21852E-001	-7.41000E-003	0.00000E+000	-5.21995E-001	0.00000E+000	10	...........	0	1467.79
	80	16.2	-5.19854E-001	-7.39150E-003	0.00000E+000	-5.19995E-001	0.00000E+000	10	...........	0	1467.88
	82	16.6	-5.17851E-001	-7.30729E-003	0.00000E+000	-5.17995E-001	0.00000E+000	10	...........	0	1467.88
	84	17	-5.15855E-001	-7.20843E-003	0.00000E+000	-5.15995E-001	0.00000E+000	10	...........	0	1467.88
	86	17.4	-5.13861E-001	-7.11713E-003	0.00000E+000	-5.13996E-001	0.00000E+000	10	...........	0	1467.97
	88	17.8	-5.11844E-001	-7.04132E-003	0.00000E+000	-5.11996E-001	0.00000E+000	10	...........	0	1467.97
	90	18.2	-5.09840E-001	-6.96977E-003	0.00000E+000	-5.09996E-001	0.00000E+000	10	...........	0	1467.88
	92	18.6	-5.07850E-001	-6.86682E-003	0.00000E+000	-5.07996E-001	0.00000E+000	10	...........	0	1467.88
	94	19	-5.05854E-001	-6.79495E-003	0.00000E+000	-5.05996E-001	0.00000E+000	10	...........	0	1467.88
	96	19.4	-5.03846E-001	-6.71790E-003	0.00000E+000	-5.03997E-001	0.00000E+000	10	...........	0	1467.88
	98	19.8	-5.01866E-001	-6.67164E-003	0.00000E+000	-5.01997E-001	0.00000E+000	10	...........	0	1467.88
	100	20.2	-4.99852E-001	-6.57018E-003	0.00000E+000	-4.99997E-001	0.00000E+000	10	...........	0	1467.79
	102	20.6	-4.97857E-001	-6.48949E-003	0.00000E+000	-4.97997E-001	0.00000E+000	10	...........	0	1467.79
	104	21	-4.95840E-001	-6.42104E-003	0.00000E+000	-4.95997E-001	0.00000E+000	10	...........	0	1467.79
	106	21.4	-4.93848E-001	-6.35237E-003	0.00000E+000	-4.93998E-001	0.00000E+000	10	...........	0	1467.88
	108	21.8	-4.91848E-001	-6.27017E-003	0.00000E+000	-4.91998E-001	0.00000E+000	10	...........	0	1467.88
	110	22.2	-4.89869E-001	-6.17717E-003	0.00000E+000	-4.89998E-001	0.00000E+000	10	...........	0	1467.88
	112	22.6	-4.87861E-001	-6.10718E-003	0.00000E+000	-4.87998E-001	0.00000E+000	10	...........	0	1467.88
	114	23	-4.85844E-001	-6.03073E-003	0.00000E+000	-4.85998E-001	0.00000E+000	10	...........	0	1467.88
	116	23.4	-4.83832E-001	-6.03632E-003	0.00000E+000	-4.83999E-001	0.00000E+000	10	...........	0	1467.88
	118	23.8	-4.81857E-001	-5.95295E-003	0.00000E+000	-4.81999E-001	0.00000E+000	10	...........	0	1467.88
	120	24.2	-4.79851E-001	-5.87260E-003	0.00000E+000	-4.79999E-001	0.00000E+000	10	...........	0	1467.88
	122	24.6	-4.77840E-001	-5.79288E-003	0.00000E+000	-4.77999E-001	0.00000E+000	10	...........	0	1467.88
	124	25	-4.75857E-001	-5.76450E-003	0.00000E+000	-4.75999E-001	0.00000E+000	10	...........	0	1467.88
	126	25.4	-4.73856E-001	-5.68007E-003	0.00000E+000	-4.74000E-001	0.00000E+000	10	...........	0	1467.88
	128	25.8	-4.71850E-001	-5.60383E-003	0.00000E+000	-4.72000E-001	0.00000E+000	10	...........	0	1467.88
	130	26.2	-4.69855E-001	-5.52078E-003	0.00000E+000	-4.70000E-001	0.00000E+000	10	...........	0	1467.61
	132	26.6	-4.67845E-001	-5.47154E-003	0.00000E+000	-4.68000E-001	0.00000E+000	10	...........	0	1467.61
	134	27	-4.65858E-001	-5.39446E-003	0.00000E+000	-4.66000E-001	0.00000E+000	10	...........	0	1467.61
	136	27.4	-4.63850E-001	-5.35659E-003	0.00000E+000	-4.64001E-001	0.00000E+000	10	...........	0	1467.88
	138	27.8	-4.61863E-001	-5.27793E-003	0.00000E+000	-4.62001E-001	0.00000E+000	10	...........	0	1467.88
	140	28.2	-4.59842E-001	-5.21582E-003	0.00000E+000	-4.60001E-001	0.00000E+000	10	...........	0	1467.88
	142	28.6	-4.57832E-001	-5.14441E-003	0.00000E+000	-4.58001E-001	0.00000E+000	10	...........	0	1467.88
	144	29	-4.55843E-001	-5.08994E-003	0.00000E+000	-4.56001E-001	0.00000E+000	10	...........	0	1467.88
	146	29.4	-4.53846E-001	-5.03764E-003	0.00000E+000	-4.54002E-001	0.00000E+000	10	...........	0	1467.88
	148	29.8	-4.51838E-001	-5.11727E-003	0.00000E+000	-4.52002E-001	0.00000E+000	10	...........	0	1467.88
	150	30.2	-4.49844E-001	-5.04707E-003	0.00000E+000	-4.50002E-001	0.00000E+000	10	...........	0	1467.88
	152	30.6	-4.47831E-001	-4.97578E-003	0.00000E+000	-4.48002E-001	0.00000E+000	10	...........	0	1467.88
	154	31	-4.45832E-001	-4.90346E-003	0.00000E+000	-4.46002E-001	0.00000E+000	10	...........	0	1467.88
	156	31.4	-4.43832E-001	-4.84153E-003	0.00000E+000	-4.44003E-001	0.00000E+000	10	...........	0	1467.88
	158	31.8	-4.41843E-001	-4.77699E-003	0.00000E+000	-4.42003E-001	0.00000E+000	10	...........	0	1467.88
	160	32.2	-4.39845E-001	-4.71052E-003	0.00000E+000	-4.40003E-001	0.00000E+000	10	...........	0	1467.88
	162	32.6	-4.37851E-001	-4.64919E-003	0.00000E+000	-4.38003E-001	0.00000E+000	10	...........	0	1467.88
	164	33	-4.35844E-001	-4.57879E-003	0.00000E+000	-4.36003E-001	0.00000E+000	10	...........	0	1467.88
	166	33.4	-4.33815E-001	-4.54944E-003	0.00000E+000	-4.34004E-001	0.00000E+000	10	...........	0	1467.88
	168	33.8	-4.31831E-001	-4.48401E-003	0.00000E+000	-4.32004E-001	0.00000E+000	10	...........	0	1467.88
	170	34.2	-4.29828E-001	-4.41466E-003	0.00000E+000	-4.30004E-001	0.00000E+000	10	...........	0	1467.88
	172	34.6	-4.27828E-001	-4.34375E-003	0.00000E+000	-4.28004E-001	0.00000E+000	10	...........	0	1467.88
	174	35	-4.25832E-001	-4.36491E-003	0.00000E+000	-4.26004E-001	0.00000E+000	10	...........	0	1467.88
	176	35.4	-4.23831E-001	-4.31509E-003	0.00000E+000	-4.24005E-001	0.00000E+000	10	...........	0	1467.88
	178	35.8	-4.21834E-001	-4.24514E-003	0.00000E+000	-4.22005E-001	0.00000E+000	10	...........	0	1467.88
	180	36.2	-4.19814E-001	-4.17551E-003	0.00000E+000	-4.20005E-001	0.00000E+000	10	...........	0	1467.79
	182	36.6	-4.17829E-001	-4.11039E-003	0.00000E+000	-4.18005E-001	0.00000E+000	10	...........	0	1467.79
	184	37	-4.15826E-001	-4.05579E-003	0.00000E+000	-4.16005E-001	0.00000E+000	10	...........	0	1467.79
	186	37.4	-4.13834E-001	-4.00091E-003	0.00000E+000	-4.14006E-001	0.00000E+000	10	...........	0	1467.88
	188	37.8	-4.11848E-001	-3.93566E-003	0.00000E+000	-4.12006E-001	0.00000E+000	10	...........	0	1467.88
	190	38.2	-4.09863E-001	-3.87103E-003	0.00000E+000	-4.10006E-001	0.00000E+000	10	...........	0	1467.88
	192	38.6	-4.07809E-001	-3.80922E-003	0.00000E+000	-4.08006E-001	0.00000E+000	10	...........	0	1467.88
	194	39	-4.05819E-001	-3.75441E-003	0.00000E+000	-4.06007E-001	0.00000E+000	10	...........	0	1467.88
	196	39.4	-4.03807E-001	-3.69005E-003	0.00000E+000	-4.03994E-001	0.00000E+000	10	...........	0	1467.79
	198	39.8	-4.01807E-001	-3.64786E-003	0.00000E+000	-4.01994E-001	0.00000E+000	10	...........	0	1467.79
	200	40.2	-3.99817E-001	-3.58320E-003	0.00000E+000	-3.99995E-001	0.00000E+000	10	...........	0	1467.61
	202	40.6	-3.97817E-001	-3.52954E-003	0.00000E+000	-3.97995E-001	0.00000E+000	10	...........	0	1467.61
	204	41	-3.95792E-001	-3.47145E-003	0.00000E+000	-3.95995E-001	0.00000E+000	10	...........	0	1467.61
	206	41.4	-3.93793E-001	-3.41790E-003	0.00000E+000	-3.93995E-001	0.00000E+000	10	...........	0	1467.52
	208	41.8	-3.91801E-001	-3.36500E-003	0.00000E+000	-3.91995E-001	0.00000E+000	10	...........	0	1467.52
	210	42.2	-3.89808E-001	-3.30648E-003	0.00000E+000	-3.89996E-001	0.00000E+000	10	...........	0	1467.79
	212	42.6	-3.87802E-001	-3.24765E-003	0.00000E+000	-3.87996E-001	0.00000E+000	10	...........	0	1467.79
	214	43	-3.85820E-001	-3.19076E-003	0.00000E+000	-3.85996E-001	0.00000E+000	10	...........	0	1467.79
	216	43.4	-3.83784E-001	-3.14725E-003	0.00000E+000	-3.83996E-001	0.00000E+000	10	...........	0	1467.88
	218	43.8	-3.81801E-001	-3.09010E-003	0.00000E+000	-3.81996E-001	0.00000E+000	10	...........	0	1467.88
	220	44.2	-3.79812E-001	-3.03065E-003	0.00000E+000	-3.79997E-001	0.00000E+000	10	...........	0	1467.88
	222	44.6	-3.77804E-001	-2.97922E-003	0.00000E+000	-3.77997E-001	0.00000E+000	10	...........	0	1467.88
	224	45	-3.75794E-001	-2.92764E-003	0.00000E+000	-3.75997E-001	0.00000E+000	10	...........	0	1467.88
	226	45.4	-3.73802E-001	-2.87040E-003	0.00000E+000	-3.73997E-001	0.00000E+000	10	...........	0	1467.88
	228	45.8	-3.71819E-001	-2.81301E-003	0.00000E+000	-3.71997E-001	0.00000E+000	10	...........	0	1467.88
	230	46.2	-3.69808E-001	-2.76380E-003	0.00000E+000	-3.69998E-001	0.00000E+000	10	...........	0	1467.88
	232	46.6	-3.67801E-001	-2.70542E-003	0.00000E+000	-3.67998E-001	0.00000E+000	10	...........	0	1467.88
	234	47	-3.65803E-001	-2.64943E-003	0.00000E+000	-3.65998E-001	0.00000E+000	10	...........	0	1467.88
	236	47.4	-3.63809E-001	-2.59401E-003	0.00000E+000	-3.63998E-001	0.00000E+000	10	...........	0	1467.88
	238	47.8	-3.61816E-001	-2.53839E-003	0.00000E+000	-3.61998E-001	0.00000E+000	10	...........	0	1467.88
	240	48.2	-3.59819E-001	-2.48777E-003	0.00000E+000	-3.59999E-001	0.00000E+000	10	...........	0	1467.88
	242	48.6	-3.57783E-001	-2.43562E-003	0.00000E+000	-3.57999E-001	0.00000E+000	10	...........	0	1467.88
	244	49	-3.55764E-001	-2.38155E-003	0.00000E+000	-3.55999E-001	0.00000E+000	10	...........	0	1467.88
	246	49.4	-3.53804E-001	-2.32641E-003	0.00000E+000	-3.53999E-001	0.00000E+000	10	...........	0	1467.88
	248	49.8	-3.51796E-001	-2.27086E-003	0.00000E+000	-3.52000E-001	0.00000E+000	10	...........	0	1467.88
	250	50.2	-3.49785E-001	-2.21927E-003	0.00000E+000	-3.50000E-001	0.00000E+000	10	...........	0	1467.79
	252	50.6	-3.47809E-001	-2.17251E-003	0.00000E+000	-3.48000E-001	0.00000E+000	10	...........	0	1467.79
	254	51	-3.45813E-001	-2.11760E-003	0.00000E+000	-3.46000E-001	0.00000E+000	10	...........	0	1467.79
	256	51.4	-3.43792E-001	-2.06787E-003	0.00000E+000	-3.44000E-001	0.00000E+000	10	...........	0	1467.88
	258	51.8	-3.41789E-001	-2.02379E-003	0.00000E+000	-3.42001E-001	0.00000E+000	10	...........	0	1467.88
	260	52.2	-3.39802E-001	-1.97783E-003	0.00000E+000	-3.40001E-001	0.00000E+000	10	...........	0	1467.79
	262	52.6	-3.37804E-001	-1.92682E-003	0.00000E+000	-3.38001E-001	0.00000E+000	10	...........	0	1467.79
	264	53	-3.35799E-001	-1.87455E-003	0.00000E+000	-3.36001E-001	0.00000E+000	10	...........	0	1467.79
	266	53.4	-3.33795E-001	-1.82224E-003	0.00000E+000	-3.34001E-001	0.00000E+000	10	...........	0	1467.79
	268	53.8	-3.31788E-001	-1.77222E-003	0.00000E+000	-3.32002E-001	0.00000E+000	10	...........	0	1467.79
	270	54.2	-3.29796E-001	-1.72064E-003	0.00000E+000	-3.30002E-001	0.00000E+000	10	...........	0	1467.70
	272	54.6	-3.27790E-001	-1.67082E-003	0.00000E+000	-3.28002E-001	0.00000E+000	10	...........	0	1467.70
	274	55	-3.25780E-001	-1.62309E-003	0.00000E+000	-3.26002E-001	0.00000E+000	10	...........	0	1467.70
	276	55.4	-3.23798E-001	-1.57257E-003	0.00000E+000	-3.24002E-001	0.00000E+000	10	...........	0	1467.61
	278	55.8	-3.21785E-001	-1.52184E-003	0.00000E+000	-3.22003E-001	0.00000E+000	10	...........	0	1467.61
	280	56.2	-3.19777E-001	-1.47261E-003	0.00000E+000	-3.20003E-001	0.00000E+000	10	...........	0	1467.52
	282	56.6	-3.17785E-001	-1.42386E-003	0.00000E+000	-3.18003E-001	0.00000E+000	10	...........	0	1467.52
	284	57	-3.15808E-001	-1.37491E-003	0.00000E+000	-3.16003E-001	0.00000E+000	10	...........	0	1467.52
	286	57.4	-3.13790E-001	-1.32787E-003	0.00000E+000	-3.14003E-001	0.00000E+000	10	...........	0	1467.79
	288	57.8	-3.11778E-001	-1.28030E-003	0.00000E+000	-3.12004E-001	0.00000E+000	10	...........	0	1467.79
	290	58.2	-3.09804E-001	-1.23263E-003	0.00000E+000	-3.10004E-001	0.00000E+000	10	...........	0	1467.88
	292	58.6	-3.07784E-001	-1.18527E-003	0.00000E+000	-3.08004E-001	0.00000E+000	10	...........	0	1467.88
	294	59	-3.05788E-001	-1.13906E-003	0.00000E+000	-3.06004E-001	0.00000E+000	10	...........	0	1467.88
	296	59.4	-3.03785E-001	-1.09349E-003	0.00000E+000	-3.04004E-001	0.00000E+000	10	...........	0	1467.88
	298	59.8	-3.01773E-001	-1.04854E-003	0.00000E+000	-3.02005E-001	0.00000E+000	10	...........	0	1467.88
	300	60.2	-2.99793E-001	-1.00393E-003	0.00000E+000	-3.00005E-001	0.00000E+000	10	...........	0	1467.79
	302	60.6	-2.97794E-001	-9.59930E-004	0.00000E+000	-2.98005E-001	0.00000E+000	10	...........	0	1467.79
	304	61	-2.95796E-001	-9.23946E-004	0.00000E+000	-2.96005E-001	0.00000E+000	10	...........	0	1467.79
	306	61.4	-2.93783E-001	-8.91943E-004	0.00000E+000	-2.94005E-001	0.00000E+000	10	...........	0	1467.79
	308	61.8	-2.91793E-001	-8.48746E-004	0.00000E+000	-2.92006E-001	0.00000E+000	10	...........	0	1467.79
	310	62.2	-2.89787E-001	-8.05964E-004	0.00000E+000	-2.90006E-001	0.00000E+000	10	...........	0	1467.79
	312	62.6	-2.87785E-001	-7.65757E-004	0.00000E+000	-2.88006E-001	0.00000E+000	9	...........	0	1467.79
	314	63	-2.85776E-001	-7.24812E-004	0.00000E+000	-2.86006E-001	0.00000E+000	9	...........	0	1467.79
	316	63.4	-2.83766E-001	-6.84726E-004	0.00000E+000	-2.84006E-001	0.00000E+000	9	...........	0	1467.88
	318	63.8	-2.81767E-001	-6.45449E-004	0.00000E+000	-2.82007E-001	0.00000E+000	9	...........	0	1467.88
	320	64.2	-2.79784E-001	-6.07227E-004	0.00000E+000	-2.80007E-001	0.00000E+000	9	...........	0	1467.88
	322	64.6	-2.77754E-001	-5.69510E-004	0.00000E+000	-2.77995E-001	0.00000E+000	9	...........	0	1467.88
	324	65	-2.75773E-001	-5.32934E-004	0.00000E+000	-2.75995E-001	0.00000E+000	9	...........	0	1467.88
	326	65.4	-2.73764E-001	-4.97315E-004	0.00000E+000	-2.73995E-001	0.00000E+000	9	...........	0	1467.88
	328	65.8	-2.71771E-001	-4.62856E-004	0.00000E+000	-2.71995E-001	0.00000E+000	9	...........	0	1467.88
	330	66.2	-2.69773E-001	-4.29317E-004	0.00000E+000	-2.69995E-001	0.00000E+000	9	...........	0	1467.88
	332	66.6	-2.67758E-001	-3.96815E-004	0.00000E+000	-2.67996E-001	0.00000E+000	9	...........	0	1467.88
	334	67	-2.65756E-001	-3.65486E-004	0.00000E+000	-2.65996E-001	0.00000E+000	9	...........	0	1467.88
	336	67.4	-2.63773E-001	-3.35077E-004	0.00000E+000	-2.63996E-001	0.00000E+000	9	...........	0	1467.88
	338	67.8	-2.61763E-001	-3.05854E-004	0.00000E+000	-2.61996E-001	0.00000E+000	9	...........	0	1467.88
	340	68.2	-2.59781E-001	-2.77718E-004	0.00000E+000	-2.59996E-001	0.00000E+000	9	...........	0	1467.88
	342	68.6	-2.57764E-001	-2.50533E-004	0.00000E+000	-2.57997E-001	0.00000E+000	9	...........	0	1467.88
	344	69	-2.55737E-001	-2.24530E-004	0.00000E+000	-2.55997E-001	0.00000E+000	9	...........	0	1467.88
	346	69.4	-2.53754E-001	-1.99588E-004	0.00000E+000	-2.53997E-001	0.00000E+000	9	...........	0	1467.79
	348	69.8	-2.51745E-001	-1.75813E-004	0.00000E+000	-2.51997E-001	0.00000E+000	9	...........	0	1467.79
	350	70.2	-2.49755E-001	-1.53029E-004	0.00000E+000	-2.49997E-001	0.00000E+000	9	...........	0	1467.70
	352	70.6	-2.47753E-001	-1.31322E-004	0.00000E+000	-2.47998E-001	0.00000E+000	9	...........	0	1467.70
	354	71	-2.45765E-001	-1.10654E-004	0.00000E+000	-2.45998E-001	0.00000E+000	9	...........	0	1467.70
	356	71.4	-2.43771E-001	-9.09185E-005	0.00000E+000	-2.43998E-001	0.00000E+000	9	...........	0	1467.52
	358	71.8	-2.41745E-001	-7.22185E-005	0.00000E+000	-2.41998E-001	0.00000E+000	9	...........	0	1467.52
	360	72.2	-2.39754E-001	-5.47525E-005	0.00000E+000	-2.39998E-001	0.00000E+000	8	...........	0	1467.79
	362	72.6	-2.37755E-001	-3.78929E-005	0.00000E+000	-2.37999E-001	0.00000E+000	8	...........	0	1467.79
	364	73	-2.35748E-001	-2.19717E-005	0.00000E+000	-2.35999E-001	0.00000E+000	8	...........	0	1467.79
	366	73.4	-2.33771E-001	-6.88890E-006	0.00000E+000	-2.33999E-001	0.00000E+000	8	...........	0	1467.88
	368	73.8	-2.31813E-001	1.09394E-006	0.00000E+000	-2.31999E-001	0.00000E+000	6	....ih..i..	0	1467.88
	370	74.2	-2.29745E-001	2.08033E-005	0.00000E+000	-2.29999E-001	0.00000E+000	8	...........	0	1467.88
	372	74.6	-2.27744E-001	3.34933E-005	0.00000E+000	-2.28000E-001	0.00000E+000	8	...........	0	1467.88
	374	75	-2.25754E-001	4.54680E-005	0.00000E+000	-2.26000E-001	0.00000E+000	8	...........	0	1467.88
	376	75.4	-2.23768E-001	5.67191E-005	0.00000E+000	-2.24000E-001	0.00000E+000	8	...........	0	1467.79
	378	75.8	-2.21745E-001	6.73447E-005	0.00000E+000	-2.22000E-001	0.00000E+000	8	...........	0	1467.79
	380	76.2	-2.19759E-001	7.73536E-005	0.00000E+000	-2.20000E-001	0.00000E+000	8	...........	0	1467.88
	382	76.6	-2.17778E-001	8.67488E-005	0.00000E+000	-2.18001E-001	0.00000E+000	8	...........	0	1467.88
	384	77	-2.15737E-001	9.59863E-005	0.00000E+000	-2.16001E-001	0.00000E+000	9	...........	0	1467.88
	386	77.4	-2.13742E-001	1.04331E-004	0.00000E+000	-2.14001E-001	0.00000E+000	9	...........	0	1467.97
	388	77.8	-2.11746E-001	1.12200E-004	0.00000E+000	-2.12001E-001	0.00000E+000	9	...........	0	1467.97
	390	78.2	-2.09743E-001	1.19569E-004	0.00000E+000	-2.10001E-001	0.00000E+000	9	...........	0	1467.79
	392	78.6	-2.07746E-001	1.26537E-004	0.00000E+000	-2.08002E-001	0.00000E+000	9	...........	0	1467.79
	394	79	-2.05760E-001	1.33121E-004	0.00000E+000	-2.06002E-001	0.00000E+000	9	...........	0	1467.79
	396	79.4	-2.03747E-001	1.39276E-004	0.00000E+000	-2.04002E-001	0.00000E+000	9	...........	0	1467.79
	398	79.8	-2.01755E-001	1.45117E-004	0.00000E+000	-2.02002E-001	0.00000E+000	9	...........	0	1467.79
	400	80.2	-1.99760E-001	1.50620E-004	0.00000E+000	-2.00002E-001	0.00000E+000	9	...........	0	1467.79
	402	80.6	-1.97741E-001	1.55821E-004	0.00000E+000	-1.98003E-001	0.00000E+000	9	...........	0	1467.79
	404	81	-1.95745E-001	1.60748E-004	0.00000E+000	-1.96003E-001	0.00000E+000	9	...........	0	1467.79
	406	81.4	-1.93764E-001	1.65407E-004	0.00000E+000	-1.94003E-001	0.00000E+000	9	...........	0	1467.88
	408	81.8	-1.91748E-001	1.69811E-004	0.00000E+000	-1.92003E-001	0.00000E+000	9	...........	0	1467.88
	410	82.2	-1.89741E-001	1.74013E-004	0.00000E+000	-1.90003E-001	0.00000E+000	9	...........	0	1467.79
	412	82.6	-1.87744E-001	1.77998E-004	0.00000E+000	-1.88004E-001	0.00000E+000	9	...........	0	1467.79
	414	83	-1.85755E-001	1.81791E-004	0.00000E+000	-1.86004E-001	0.00000E+000	9	...........	0	1467.79
	416	83.4	-1.83749E-001	1.85396E-004	0.00000E+000	-1.84004E-001	0.00000E+000	9	...........	0	1467.79
	418	83.8	-1.81755E-001	1.88833E-004	0.00000E+000	-1.82004E-001	0.00000E+000	9	...........	0	1467.79
	420	84.2	-1.79757E-001	1.92107E-004	0.00000E+000	-1.80005E-001	0.00000E+000	9	...........	0	1467.79
	422	84.6	-1.77725E-001	1.95243E-004	0.00000E+000	-1.78005E-001	0.00000E+000	9	...........	0	1467.79
	424	85	-1.75747E-001	1.98240E-004	0.00000E+000	-1.76005E-001	0.00000E+000	9	...........	0	1467.79
	426	85.4	-1.73738E-001	2.01116E-004	0.00000E+000	-1.74005E-001	0.00000E+000	9	...........	0	1467.61
	428	85.8	-1.71735E-001	2.03866E-004	0.00000E+000	-1.72005E-001	0.00000E+000	9	...........	0	1467.61
	430	86.2	-1.69745E-001	2.06513E-004	0.00000E+000	-1.70006E-001	0.00000E+000	9	...........	0	1467.52
	432	86.6	-1.67745E-001	2.09018E-004	0.00000E+000	-1.68006E-001	0.00000E+000	9	...........	0	1467.52
	434	87	-1.65749E-001	2.11445E-004	0.00000E+000	-1.66006E-001	0.00000E+000	9	...........	0	1467.52
	436	87.4	-1.63740E-001	2.13776E-004	0.00000E+000	-1.64006E-001	0.00000E+000	9	...........	0	1467.88
	438	87.8	-1.61756E-001	2.16016E-004	0.00000E+000	-1.62006E-001	0.00000E+000	9	...........	0	1467.88
	440	88.2	-1.59742E-001	2.18166E-004	0.00000E+000	-1.60007E-001	0.00000E+000	9	...........	0	1467.88
	442	88.6	-1.57748E-001	2.20238E-004	0.00000E+000	-1.58007E-001	0.00000E+000	9	...........	0	1467.88
	444	89	-1.55760E-001	2.22248E-004	0.00000E+000	-1.56007E-001	0.00000E+000	9	...........	0	1467.88
	446	89.4	-1.53720E-001	2.24186E-004	0.00000E+000	-1.53995E-001	0.00000E+000	9	...........	0	1467.88
	448	89.8	-1.51700E-001	2.26029E-004	0.00000E+000	-1.51995E-001	0.00000E+000	9	...........	0	1467.88
	450	90.2	-1.49716E-001	2.27813E-004	0.00000E+000	-1.49995E-001	0.00000E+000	9	...........	0	1467.88
	452	90.6	-1.47718E-001	2.29535E-004	0.00000E+000	-1.47995E-001	0.00000E+000	9	...........	0	1467.88
	454	91	-1.45720E-001	2.31201E-004	0.00000E+000	-1.45995E-001	0.00000E+000	9	...........	0	1467.88
	456	91.4	-1.43730E-001	2.32799E-004	0.00000E+000	-1.43996E-001	0.00000E+000	9	...........	0	1467.79
	458	91.8	-1.41721E-001	2.34337E-004	0.00000E+000	-1.41996E-001	0.00000E+000	9	...........	0	1467.79
	460	92.2	-1.39706E-001	2.35786E-004	0.00000E+000	-1.39996E-001	0.00000E+000	9	...........	0	1467.79
	462	92.6	-1.37714E-001	2.37202E-004	0.00000E+000	-1.37996E-001	0.00000E+000	9	...........	0	1467.79
	464	93	-1.35714E-001	2.38553E-004	0.00000E+000	-1.35996E-001	0.00000E+000	9	...........	0	1467.79
	466	93.4	-1.33720E-001	2.39844E-004	0.00000E+000	-1.33997E-001	0.00000E+000	9	...........	0	1467.88
	468	93.8	-1.31738E-001	2.41078E-004	0.00000E+000	-1.31997E-001	0.00000E+000	9	...........	0	1467.88
	470	94.2	-1.29719E-001	2.42382E-004	0.00000E+000	-1.29997E-001	0.00000E+000	9	...........	0	1467.88
	472	94.6	-1.27702E-001	2.33096E-004	0.00000E+000	-1.27997E-001	0.00000E+000	9	...........	0	1467.88
	474	95	-1.25708E-001	2.29981E-004	0.00000E+000	-1.25998E-001	0.00000E+000	9	...........	0	1467.88
	476	95.4	-1.23713E-001	2.29685E-004	0.00000E+000	-1.23998E-001	0.00000E+000	9	...........	0	1467.79
	478	95.8	-1.21712E-001	2.30171E-004	0.00000E+000	-1.21998E-001	0.00000E+000	9	...........	0	1467.79
	480	96.2	-1.19709E-001	2.30901E-004	0.00000E+000	-1.19998E-001	0.00000E+000	9	...........	0	1467.79
	482	96.6	-1.17707E-001	2.31594E-004	0.00000E+000	-1.17998E-001	0.00000E+000	9	...........	0	1467.79
	484	97	-1.15714E-001	2.32332E-004	0.00000E+000	-1.15999E-001	0.00000E+000	9	...........	0	1467.79
	486	97.4	-1.13703E-001	2.33108E-004	0.00000E+000	-1.13999E-001	0.00000E+000	9	...........	0	1467.79
	488	97.8	-1.11716E-001	2.33907E-004	0.00000E+000	-1.11999E-001	0.00000E+000	9	...........	0	1467.79
	490	98.2	-1.09708E-001	2.34722E-004	0.00000E+000	-1.09999E-001	0.00000E+000	9	...........	0	1467.88
	492	98.6	-1.07726E-001	2.35563E-004	0.00000E+000	-1.07999E-001	0.00000E+000	9	...........	0	1467.88
	494	99	-1.05721E-001	2.36412E-004	0.00000E+000	-1.06000E-001	0.00000E+000	9	...........	0	1467.88
	496	99.4	-1.03719E-001	2.37250E-004	0.00000E+000	-1.04000E-001	0.00000E+000	9	...........	0	1467.79
	498	99.8	-1.01714E-001	2.38081E-004	0.00000E+000	-1.02000E-001	0.00000E+000	9	...........	0	1467.79
	500	100.2	-9.97175E-002	2.38923E-004	0.00000E+000	-1.00000E-001	0.00000E+000	9	...........	0	1467.61
	502	100.6	-9.76968E-002	2.39799E-004	0.00000E+000	-9.80004E-002	0.00000E+000	9	...........	0	1467.61
	504	101	-9.57202E-002	2.40673E-004	0.00000E+000	-9.60006E-002	0.00000E+000	9	...........	0	1467.61
	506	101.4	-9.37074E-002	2.41536E-004	0.00000E+000	-9.40008E-002	0.00000E+000	9	...........	0	1467.61
	508	101.8	-9.17206E-002	2.42413E-004	0.00000E+000	-9.20010E-002	0.00000E+000	9	...........	0	1467.61
	510	102.2	-8.97239E-002	2.43285E-004	0.00000E+000	-9.00012E-002	0.00000E+000	9	...........	0	1467.88
	512	102.6	-8.77029E-002	2.44160E-004	0.00000E+000	-8.80014E-002	0.00000E+000	9	...........	0	1467.88
	514	103	-8.57008E-002	2.45031E-004	0.00000E+000	-8.60016E-002	0.00000E+000	9	...........	0	1467.88
	516	103.4	-8.37198E-002	2.45894E-004	0.00000E+000	-8.40018E-002	0.00000E+000	9	...........	0	1467.88
	518	103.8	-8.17001E-002	2.46763E-004	0.00000E+000	-8.20020E-002	0.00000E+000	9	...........	0	1467.88
	520	104.2	-7.97069E-002	2.47650E-004	0.00000E+000	-8.00022E-002	0.00000E+000	9	...........	0	1467.79
	522	104.6	-7.77037E-002	2.48536E-004	0.00000E+000	-7.80024E-002	0.00000E+000	9	...........	0	1467.79
	524	105	-7.56866E-002	2.49415E-004	0.00000E+000	-7.60026E-002	0.00000E+000	9	...........	0	1467.79
	526	105.4	-7.37038E-002	2.50310E-004	0.00000E+000	-7.40028E-002	0.00000E+000	9	...........	0	1467.88
	528	105.8	-7.17060E-002	2.51206E-004	0.00000E+000	-7.20030E-002	0.00000E+000	9	...........	0	1467.88
	530	106.2	-6.96881E-002	2.52082E-004	0.00000E+000	-7.00032E-002	0.00000E+000	9	...........	0	1467.88
	532	106.6	-6.76933E-002	2.52923E-004	0.00000E+000	-6.80034E-002	0.00000E+000	9	...........	0	1467.88
	534	107	-6.57140E-002	2.53789E-004	0.00000E+000	-6.60036E-002	0.00000E+000	9	...........	0	1467.88
	536	107.4	-6.37046E-002	2.54656E-004	0.00000E+000	-6.40038E-002	0.00000E+000	9	...........	0	1467.88
	538	107.8	-6.17019E-002	2.55507E-004	0.00000E+000	-6.20040E-002	0.00000E+000	9	...........	0	1467.88
	540	108.2	-5.96936E-002	2.56345E-004	0.00000E+000	-6.00042E-002	0.00000E+000	9	...........	0	1467.88
	542	108.6	-5.76977E-002	2.57203E-004	0.00000E+000	-5.80044E-002	0.00000E+000	9	...........	0	1467.88
	544	109	-5.56966E-002	2.58017E-004	0.00000E+000	-5.60046E-002	0.00000E+000	9	...........	0	1467.88
	546	109.4	-5.37034E-002	2.58806E-004	0.00000E+000	-5.40048E-002	0.00000E+000	9	...........	0	1467.88
	548	109.8	-5.17061E-002	2.59572E-004	0.00000E+000	-5.20050E-002	0.00000E+000	9	...........	0	1467.88
	550	110.2	-4.96834E-002	2.60359E-004	0.00000E+000	-5.00052E-002	0.00000E+000	9	...........	0	1467.88
	552	110.6	-4.76757E-002	2.61114E-004	0.00000E+000	-4.80054E-002	0.00000E+000	9	...........	0	1467.88
	554	111	-4.56865E-002	2.61867E-004	0.00000E+000	-4.60056E-002	0.00000E+000	9	...........	0	1467.88
	556	111.4	-4.37098E-002	2.62597E-004	0.00000E+000	-4.40058E-002	0.00000E+000	9	...........	0	1467.88
	558	111.8	-4.16877E-002	2.63310E-004	0.00000E+000	-4.20060E-002	0.00000E+000	9	...........	0	1467.88
	560	112.2	-3.96970E-002	2.63987E-004	0.00000E+000	-4.00063E-002	0.00000E+000	9	...........	0	1467.88
	562	112.6	-3.76757E-002	2.64676E-004	0.00000E+000	-3.80065E-002	0.00000E+000	9	...........	0	1467.88
	564	113	-3.56892E-002	2.65322E-004	0.00000E+000	-3.60067E-002	0.00000E+000	9	...........	0	1467.88
	566	113.4	-3.36788E-002	2.65957E-004	0.00000E+000	-3.40069E-002	0.00000E+000	9	...........	0	1467.79
	568	113.8	-3.17053E-002	2.66555E-004	0.00000E+000	-3.20071E-002	0.00000E+000	9	...........	0	1467.79
	570	114.2	-2.96983E-002	2.67137E-004	0.00000E+000	-3.00073E-002	0.00000E+000	9	...........	0	1467.79
	572	114.6	-2.76786E-002	2.67701E-004	0.00000E+000	-2.79950E-002	0.00000E+000	9	...........	0	1467.79
	574	115	-2.56810E-002	2.68233E-004	0.00000E+000	-2.59952E-002	0.00000E+000	9	...........	0	1467.79
	576	115.4	-2.36681E-002	2.68724E-004	0.00000E+000	-2.39954E-002	0.00000E+000	9	...........	0	1467.70
	578	115.8	-2.16743E-002	2.69197E-004	0.00000E+000	-2.19956E-002	0.00000E+000	9	...........	0	1467.70
	580	116.2	-1.96705E-002	2.69639E-004	0.00000E+000	-1.99958E-002	0.00000E+000	9	...........	0	1467.61
	582	116.6	-1.76759E-002	2.70053E-004	0.00000E+000	-1.79960E-002	0.00000E+000	9	...........	0	1467.61
	584	117	-1.56725E-002	2.70420E-004	0.00000E+000	-1.59962E-002	0.00000E+000	9	...........	0	1467.61
	586	117.4	-1.36828E-002	2.70768E-004	0.00000E+000	-1.39964E-002	0.00000E+000	9	...........	0	1467.79
	588	117.8	-1.16540E-002	2.71077E-004	0.00000E+000	-1.19966E-002	0.00000E+000	9	...........	0	1467.79
	590	118.2	-9.67310E-003	2.71357E-004	0.00000E+000	-9.99680E-003	0.00000E+000	9	...........	0	1467.79
	592	118.6	-7.65955E-003	2.71614E-004	0.00000E+000	-7.99701E-003	0.00000E+000	9	...........	0	1467.79
	594	119	-5.67662E-003	2.71854E-004	0.00000E+000	-5.99721E-003	0.00000E+000	9	...........	0	1467.79
	596	119.4	-3.67017E-003	2.72080E-004	0.00000E+000	-3.99742E-003	0.00000E+000	9	...........	0	1467.88
	598	119.8	-1.68194E-003	2.72269E-004	0.00000E+000	-1.99762E-003	0.00000E+000	9	...........	0	1467.88
	600	120.2	3.60842E-004	2.72440E-004	0.00000E+000	2.17557E-006	0.00000E+000	9	...........	0	1467.88