File: input/HER_#2_#3.DTA
EXPLAIN
TAG	LSV
TITLE	LABEL	HER	Test Identifier
DATE	LABEL	17.7.2024	Date
TIME	LABEL	13:45:24	Time
NOTES	NOTES	1	Notes...

PSTAT	PSTAT	IFC1010-34090	Potentiostat
VINIT	POTEN	0.00000E+000	F	Initial E (V)
VFINAL	POTEN	-6.00000E-001	F	Final E (V)
SCANRATE	QUANT	4.99999E+000	Scan Rate (mV/s)
STEPSIZE	QUANT	1.00000E+000	Step Size (mV)
IMODE	SELECTOR	0	I/E Range Mode
IRANGE	QUANT	3.00000E+001	Max Current (mA)
AREA	QUANT	1.00000E+000	Sample Area (cm^2)
EQDELAY	QUANT	0.00000E+000	Equil. Time (s)
IRCOMP	SELECTOR	0	IRComp
PFCOR	QUANT	5.00000E+001	PF Corr. (ohm)
SAMPLINGMODE	SELECTOR	1	Sampling Mode
EOC	QUANT	0.7205974	Open Circuit (V)
ELECTRODETYPE	SELECTOR	0	Electrode Type
STRIPPING	TOGGLE	F	Used for Stripping
SEQUENCER	TOGGLE	TRUE	Run as Sequence
PSTATMODEL	IQUANT	64	Pstat Model
PSTATSECTION	LABEL	IFC1010-34090	Pstat Section
PSTATSERIALNO	LABEL	34090	Pstat Serial Number
CTRLMODE	IQUANT	1	Control Mode
ELECTROMETER	IQUANT	0	RE=0 or CS=1
IESTAB	IQUANT	2	I/E Stability
CASPEED	IQUANT	4	Control Amp Speed
CONVENTION	IQUANT	1	Current Convention
ICHRANGE	IQUANT	2	Ich Range
ICHRANGEMODE	TOGGLE	F	Ich Auto Range
ICHOFFSETENABLE	TOGGLE	F	Ich Offset Enable
ICHOFFSET	QUANT	0	Ich Offset (V)
ICHFILTER	IQUANT	3	Ich Filter
VCHRANGE	IQUANT	2	Vch Range
VCHRANGEMODE	TOGGLE	F	Vch Auto Range
VCHOFFSETENABLE	TOGGLE	F	Vch Offset Enable
VCHOFFSET	QUANT	0	Vch Offset (V)
VCHFILTER	IQUANT	3	Vch Filter
IERANGELOWERLIMIT	IQUANT	4	I/E Range Lower Limit
IERANGEMODE	TOGGLE	T	I/E AutoRange
IERANGE	IQUANT	11	I/E Range
ACHSELECT	IQUANT	0	Ach Select
ACHRANGE	IQUANT	2	Ach Range
ACHOFFSETENABLE	TOGGLE	F	Ach Offset Enable
ACHOFFSET	QUANT	0	Ach Offset (V)
ACHFILTER	IQUANT	1	Ach Filter
SENSECABLEID	IQUANT	13	Sense Cable ID
PWRCABLEID	IQUANT	13	Power Cable ID
DCCALDATE	LABEL	1/30/2024	DC Calibration Date
ACCALDATE	LABEL	1/8/2024	AC Calibration Date
FRAMEWORKVERSION	LABEL	7.10.3	Framework Version
INSTRUMENTVERSION	LABEL	4.91	Instrument Version
COMMVERSION	LABEL	3.10	Communications Version
CPUPLDVERSION	LABEL	2.22	CPU PLD Version
CTRLPLDVERSION	LABEL	0.00	CTRL PLD Version
PSTATPLDVERSION	LABEL	0.00	PSTAT PLD Version
CURVE	TABLE	601
	Pt	T	Vf	Im	Vu	Sig	Ach	IERange	Over	Cycle	Temp
	#	s	V vs. Ref.	A	V	V	V	#	bits	#	deg C
	0	0.2	3.66247E-004	8.49624E-005	0.00000E+000	2.17557E-006	0.00000E+000	11	...........	0	1468.34
	2	0.6	-1.65712E-003	9.16360E-005	0.00000E+000	-1.99762E-003	0.00000E+000	9	...........	0	1468.34
	4	1	-3.66136E-003	8.98165E-005	0.00000E+000	-3.99742E-003	0.00000E+000	9	...........	0	1468.34
	6	1.4	-5.64324E-003	8.79937E-005	0.00000E+000	-5.99721E-003	0.00000E+000	9	...........	0	1468.34
	8	1.8	-7.64313E-003	8.61483E-005	0.00000E+000	-7.99701E-003	0.00000E+000	9	...........	0	1467.79
	10	2.2	-9.66374E-003	8.42702E-005	0.00000E+000	-9.99680E-003	0.00000E+000	9	...........	0	1467.79
	12	2.6	-1.16517E-002	8.23358E-005	0.00000E+000	-1.19966E-002	0.00000E+000	9	...........	0	1467.79
	14	3	-1.36681E-002	7.99649E-005	0.00000E+000	-1.39964E-002	0.00000E+000	8	...........	0	1467.79
	16	3.4	-1.56584E-002	7.79350E-005	0.00000E+000	-1.59962E-002	0.00000E+000	8	...........	0	1467.79
	18	3.8	-1.76704E-002	7.58457E-005	0.00000E+000	-1.79960E-002	0.00000E+000	8	...........	0	1467.79
	20	4.2	-1.96753E-002	7.36919E-005	0.00000E+000	-1.99958E-002	0.00000E+000	8	...........	0	1467.79
	22	4.6	-2.16565E-002	7.14846E-005	0.00000E+000	-2.19956E-002	0.00000E+000	8	...........	0	1467.88
	24	5	-2.36624E-002	6.92142E-005	0.00000E+000	-2.39954E-002	0.00000E+000	8	...........	0	1467.88
	26	5.4	-2.56726E-002	6.68701E-005	0.00000E+000	-2.59952E-002	0.00000E+000	8	...........	0	1467.88
	28	5.8	-2.76655E-002	6.44358E-005	0.00000E+000	-2.79950E-002	0.00000E+000	8	...........	0	1467.88
	30	6.2	-2.96832E-002	6.19450E-005	0.00000E+000	-2.99948E-002	0.00000E+000	8	...........	0	1467.88
	32	6.6	-3.16906E-002	5.93833E-005	0.00000E+000	-3.19946E-002	0.00000E+000	8	...........	0	1467.88
	34	7	-3.36757E-002	5.67592E-005	0.00000E+000	-3.39944E-002	0.00000E+000	8	...........	0	1467.88
	36	7.4	-3.56716E-002	5.40542E-005	0.00000E+000	-3.59942E-002	0.00000E+000	8	...........	0	1467.88
	38	7.8	-3.76771E-002	5.12920E-005	0.00000E+000	-3.79940E-002	0.00000E+000	8	...........	0	1467.88
	40	8.2	-3.96795E-002	4.84697E-005	0.00000E+000	-3.99938E-002	0.00000E+000	8	...........	0	1467.88
	42	8.6	-4.16810E-002	4.55806E-005	0.00000E+000	-4.20060E-002	0.00000E+000	8	...........	0	1467.88
	44	9	-4.36931E-002	4.26454E-005	0.00000E+000	-4.40058E-002	0.00000E+000	8	...........	0	1467.88
	46	9.4	-4.56877E-002	3.96783E-005	0.00000E+000	-4.60056E-002	0.00000E+000	8	...........	0	1467.88
	48	9.8	-4.76763E-002	3.66828E-005	0.00000E+000	-4.80054E-002	0.00000E+000	8	...........	0	1467.79
	50	10.2	-4.96800E-002	3.36811E-005	0.00000E+000	-5.00052E-002	0.00000E+000	8	...........	0	1467.79
	52	10.6	-5.16924E-002	3.06974E-005	0.00000E+000	-5.20050E-002	0.00000E+000	8	...........	0	1467.79
	54	11	-5.36914E-002	2.77704E-005	0.00000E+000	-5.40048E-002	0.00000E+000	8	...........	0	1467.79
	56	11.4	-5.56972E-002	2.49191E-005	0.00000E+000	-5.60046E-002	0.00000E+000	8	...........	0	1467.79
	58	11.8	-5.77030E-002	2.21938E-005	0.00000E+000	-5.80044E-002	0.00000E+000	8	...........	0	1467.79
	60	12.2	-5.96870E-002	1.96303E-005	0.00000E+000	-6.00042E-002	0.00000E+000	8	...........	0	1467.79
	62	12.6	-6.16931E-002	1.72849E-005	0.00000E+000	-6.20040E-002	0.00000E+000	8	...........	0	1467.79
	64	13	-6.36962E-002	1.51967E-005	0.00000E+000	-6.40038E-002	0.00000E+000	8	...........	0	1467.79
	66	13.4	-6.57125E-002	1.34074E-005	0.00000E+000	-6.60036E-002	0.00000E+000	8	...........	0	1467.79
	68	13.8	-6.76929E-002	1.19546E-005	0.00000E+000	-6.80034E-002	0.00000E+000	8	...........	0	1467.79
	70	14.2	-6.96873E-002	1.08740E-005	0.00000E+000	-7.00032E-002	0.00000E+000	8	...........	0	1467.79
	72	14.6	-7.16844E-002	1.01864E-005	0.00000E+000	-7.20030E-002	0.00000E+000	8	...........	0	1467.79
	74	15	-7.36929E-002	9.94247E-006	0.00000E+000	-7.40028E-002	0.00000E+000	8	...........	0	1467.79
	76	15.4	-7.56922E-002	1.01974E-005	0.00000E+000	-7.60026E-002	0.00000E+000	8	...........	0	1467.79
	78	15.8	-7.77022E-002	1.04281E-005	0.00000E+000	-7.80024E-002	0.00000E+000	8	...........	0	1467.79
	80	16.2	-7.97096E-002	1.05295E-005	0.00000E+000	-8.00022E-002	0.00000E+000	8	...........	0	1467.79
	82	16.6	-8.17052E-002	1.05034E-005	0.00000E+000	-8.20020E-002	0.00000E+000	8	...........	0	1467.79
	84	17	-8.37070E-002	1.03949E-005	0.00000E+000	-8.40018E-002	0.00000E+000	8	...........	0	1467.79
	86	17.4	-8.56906E-002	1.02390E-005	0.00000E+000	-8.60016E-002	0.00000E+000	8	...........	0	1467.79
	88	17.8	-8.76973E-002	1.00337E-005	0.00000E+000	-8.80014E-002	0.00000E+000	8	...........	0	1467.79
	90	18.2	-8.97229E-002	9.79954E-006	0.00000E+000	-9.00012E-002	0.00000E+000	8	...........	0	1467.79
	92	18.6	-9.17075E-002	9.54946E-006	0.00000E+000	-9.20010E-002	0.00000E+000	8	...........	0	1467.79
	94	19	-9.37103E-002	9.29175E-006	0.00000E+000	-9.40008E-002	0.00000E+000	8	...........	0	1467.79
	96	19.4	-9.57197E-002	9.02359E-006	0.00000E+000	-9.60006E-002	0.00000E+000	8	...........	0	1467.79
	98	19.8	-9.76980E-002	8.75247E-006	0.00000E+000	-9.80004E-002	0.00000E+000	8	...........	0	1467.79
	100	20.2	-9.97016E-002	8.47678E-006	0.00000E+000	-1.00000E-001	0.00000E+000	8	...........	0	1467.79
	102	20.6	-1.01701E-001	8.20276E-006	0.00000E+000	-1.02000E-001	0.00000E+000	8	...........	0	1467.79
	104	21	-1.03731E-001	7.90946E-006	0.00000E+000	-1.04000E-001	0.00000E+000	7	...........	0	1467.79
	106	21.4	-1.05721E-001	7.63536E-006	0.00000E+000	-1.06000E-001	0.00000E+000	7	...........	0	1467.79
	108	21.8	-1.07724E-001	7.36128E-006	0.00000E+000	-1.07999E-001	0.00000E+000	7	...........	0	1467.79
	110	22.2	-1.09703E-001	7.09859E-006	0.00000E+000	-1.09999E-001	0.00000E+000	7	...........	0	1467.79
	112	22.6	-1.11705E-001	6.83352E-006	0.00000E+000	-1.11999E-001	0.00000E+000	7	...........	0	1467.88
	114	23	-1.13702E-001	6.56495E-006	0.00000E+000	-1.13999E-001	0.00000E+000	7	...........	0	1467.88
	116	23.4	-1.15717E-001	6.31348E-006	0.00000E+000	-1.15999E-001	0.00000E+000	7	...........	0	1467.88
	118	23.8	-1.17717E-001	6.05926E-006	0.00000E+000	-1.17998E-001	0.00000E+000	7	...........	0	1467.88
	120	24.2	-1.19710E-001	5.81122E-006	0.00000E+000	-1.19998E-001	0.00000E+000	7	...........	0	1467.88
	122	24.6	-1.21707E-001	5.55627E-006	0.00000E+000	-1.21998E-001	0.00000E+000	7	...........	0	1467.88
	124	25	-1.23705E-001	5.30868E-006	0.00000E+000	-1.23998E-001	0.00000E+000	7	...........	0	1467.88
	126	25.4	-1.25705E-001	5.06697E-006	0.00000E+000	-1.25998E-001	0.00000E+000	7	...........	0	1467.88
	128	25.8	-1.27709E-001	4.82781E-006	0.00000E+000	-1.27997E-001	0.00000E+000	7	...........	0	1467.79
	130	26.2	-1.29724E-001	4.59587E-006	0.00000E+000	-1.29997E-001	0.00000E+000	7	...........	0	1467.79
	132	26.6	-1.31717E-001	4.34563E-006	0.00000E+000	-1.31997E-001	0.00000E+000	7	...........	0	1467.79
	134	27	-1.33707E-001	4.08371E-006	0.00000E+000	-1.33997E-001	0.00000E+000	7	...........	0	1467.79
	136	27.4	-1.35712E-001	3.84359E-006	0.00000E+000	-1.35996E-001	0.00000E+000	7	...........	0	1467.79
	138	27.8	-1.37718E-001	3.58994E-006	0.00000E+000	-1.37996E-001	0.00000E+000	7	...........	0	1467.88
	140	28.2	-1.39712E-001	3.35268E-006	0.00000E+000	-1.39996E-001	0.00000E+000	7	...........	0	1467.88
	142	28.6	-1.41711E-001	3.11678E-006	0.00000E+000	-1.41996E-001	0.00000E+000	7	...........	0	1467.79
	144	29	-1.43723E-001	2.88048E-006	0.00000E+000	-1.43996E-001	0.00000E+000	7	...........	0	1467.79
	146	29.4	-1.45717E-001	2.64344E-006	0.00000E+000	-1.45995E-001	0.00000E+000	7	...........	0	1467.79
	148	29.8	-1.47712E-001	2.39661E-006	0.00000E+000	-1.47995E-001	0.00000E+000	7	...........	0	1467.79
	150	30.2	-1.49702E-001	2.16673E-006	0.00000E+000	-1.49995E-001	0.00000E+000	7	...........	0	1467.79
	152	30.6	-1.51708E-001	1.92955E-006	0.00000E+000	-1.51995E-001	0.00000E+000	7	...........	0	1467.79
	154	31	-1.53711E-001	1.68213E-006	0.00000E+000	-1.53995E-001	0.00000E+000	7	...........	0	1467.79
	156	31.4	-1.55727E-001	1.42324E-006	0.00000E+000	-1.55994E-001	0.00000E+000	7	...........	0	1467.79
	158	31.8	-1.57726E-001	1.17787E-006	0.00000E+000	-1.57994E-001	0.00000E+000	7	...........	0	1467.79
	160	32.2	-1.59722E-001	9.16142E-007	0.00000E+000	-1.59994E-001	0.00000E+000	7	...........	0	1467.79
	162	32.6	-1.61725E-001	5.91576E-007	0.00000E+000	-1.61994E-001	0.00000E+000	6	...........	0	1467.79
	164	33	-1.63725E-001	3.16335E-007	0.00000E+000	-1.63994E-001	0.00000E+000	6	...........	0	1467.79
	166	33.4	-1.65732E-001	2.78495E-008	0.00000E+000	-1.66006E-001	0.00000E+000	6	...........	0	1467.79
	168	33.8	-1.67737E-001	-2.70291E-007	0.00000E+000	-1.68006E-001	0.00000E+000	6	...........	0	1467.88
	170	34.2	-1.69729E-001	-5.85052E-007	0.00000E+000	-1.70006E-001	0.00000E+000	6	...........	0	1467.88
	172	34.6	-1.71721E-001	-9.28317E-007	0.00000E+000	-1.72005E-001	0.00000E+000	6	....ih.....	0	1467.52
	174	35	-1.73726E-001	-1.22519E-006	0.00000E+000	-1.74005E-001	0.00000E+000	7	...........	0	1467.52
	176	35.4	-1.75743E-001	-1.61565E-006	0.00000E+000	-1.76005E-001	0.00000E+000	7	...........	0	1467.52
	178	35.8	-1.77709E-001	-2.02786E-006	0.00000E+000	-1.78005E-001	0.00000E+000	7	...........	0	1467.70
	180	36.2	-1.79738E-001	-2.47943E-006	0.00000E+000	-1.80005E-001	0.00000E+000	7	...........	0	1467.70
	182	36.6	-1.81735E-001	-2.98923E-006	0.00000E+000	-1.82004E-001	0.00000E+000	7	...........	0	1467.79
	184	37	-1.83740E-001	-3.53208E-006	0.00000E+000	-1.84004E-001	0.00000E+000	7	...........	0	1467.79
	186	37.4	-1.85738E-001	-4.13062E-006	0.00000E+000	-1.86004E-001	0.00000E+000	7	...........	0	1467.79
	188	37.8	-1.87747E-001	-4.79196E-006	0.00000E+000	-1.88004E-001	0.00000E+000	7	...........	0	1467.79
	190	38.2	-1.89737E-001	-5.51458E-006	0.00000E+000	-1.90003E-001	0.00000E+000	7	...........	0	1467.79
	192	38.6	-1.91737E-001	-6.30881E-006	0.00000E+000	-1.92003E-001	0.00000E+000	7	...........	0	1467.79
	194	39	-1.93746E-001	-7.20712E-006	0.00000E+000	-1.94003E-001	0.00000E+000	7	...........	0	1467.79
	196	39.4	-1.95752E-001	-8.19285E-006	0.00000E+000	-1.96003E-001	0.00000E+000	7	...........	0	1467.79
	198	39.8	-1.97735E-001	-9.30094E-006	0.00000E+000	-1.98003E-001	0.00000E+000	7	...........	0	1467.79
	200	40.2	-1.99731E-001	-1.04979E-005	0.00000E+000	-2.00002E-001	0.00000E+000	8	...........	0	1467.79
	202	40.6	-2.01754E-001	-1.18748E-005	0.00000E+000	-2.02002E-001	0.00000E+000	8	...........	0	1467.88
	204	41	-2.03725E-001	-1.33982E-005	0.00000E+000	-2.04002E-001	0.00000E+000	8	...........	0	1467.88
	206	41.4	-2.05740E-001	-1.51077E-005	0.00000E+000	-2.06002E-001	0.00000E+000	8	...........	0	1467.88
	208	41.8	-2.07746E-001	-1.70290E-005	0.00000E+000	-2.08002E-001	0.00000E+000	8	...........	0	1467.79
	210	42.2	-2.09735E-001	-1.91703E-005	0.00000E+000	-2.10001E-001	0.00000E+000	8	...........	0	1467.79
	212	42.6	-2.11743E-001	-2.15453E-005	0.00000E+000	-2.12001E-001	0.00000E+000	8	...........	0	1467.79
	214	43	-2.13728E-001	-2.42243E-005	0.00000E+000	-2.14001E-001	0.00000E+000	8	...........	0	1467.79
	216	43.4	-2.15734E-001	-2.72102E-005	0.00000E+000	-2.16001E-001	0.00000E+000	8	...........	0	1467.79
	218	43.8	-2.17747E-001	-3.05401E-005	0.00000E+000	-2.18001E-001	0.00000E+000	8	...........	0	1467.79
	220	44.2	-2.19744E-001	-3.42353E-005	0.00000E+000	-2.20000E-001	0.00000E+000	8	...........	0	1467.79
	222	44.6	-2.21728E-001	-3.83791E-005	0.00000E+000	-2.22000E-001	0.00000E+000	8	...........	0	1467.79
	224	45	-2.23738E-001	-4.29874E-005	0.00000E+000	-2.24000E-001	0.00000E+000	8	...........	0	1467.79
	226	45.4	-2.25752E-001	-4.80801E-005	0.00000E+000	-2.26000E-001	0.00000E+000	8	...........	0	1467.79
	228	45.8	-2.27725E-001	-5.37310E-005	0.00000E+000	-2.28000E-001	0.00000E+000	8	...........	0	1467.79
	230	46.2	-2.29725E-001	-5.99721E-005	0.00000E+000	-2.29999E-001	0.00000E+000	8	...........	0	1467.79
	232	46.6	-2.31761E-001	-6.68276E-005	0.00000E+000	-2.31999E-001	0.00000E+000	8	...........	0	1467.79
	234	47	-2.33755E-001	-7.44069E-005	0.00000E+000	-2.33999E-001	0.00000E+000	8	...........	0	1467.79
	236	47.4	-2.35756E-001	-8.26953E-005	0.00000E+000	-2.35999E-001	0.00000E+000	8	...........	0	1467.79
	238	47.8	-2.37746E-001	-9.17920E-005	0.00000E+000	-2.37999E-001	0.00000E+000	8	...........	0	1467.79
	240	48.2	-2.39746E-001	-1.01408E-004	0.00000E+000	-2.39998E-001	0.00000E+000	9	...........	0	1467.79
	242	48.6	-2.41756E-001	-1.12178E-004	0.00000E+000	-2.41998E-001	0.00000E+000	9	...........	0	1467.88
	244	49	-2.43755E-001	-1.23886E-004	0.00000E+000	-2.43998E-001	0.00000E+000	9	...........	0	1467.88
	246	49.4	-2.45740E-001	-1.36489E-004	0.00000E+000	-2.45998E-001	0.00000E+000	9	...........	0	1467.88
	248	49.8	-2.47759E-001	-1.50180E-004	0.00000E+000	-2.47998E-001	0.00000E+000	9	...........	0	1467.79
	250	50.2	-2.49761E-001	-1.64797E-004	0.00000E+000	-2.49997E-001	0.00000E+000	9	...........	0	1467.79
	252	50.6	-2.51747E-001	-1.80543E-004	0.00000E+000	-2.51997E-001	0.00000E+000	9	...........	0	1467.79
	254	51	-2.53741E-001	-1.97353E-004	0.00000E+000	-2.53997E-001	0.00000E+000	9	...........	0	1467.79
	256	51.4	-2.55738E-001	-2.15382E-004	0.00000E+000	-2.55997E-001	0.00000E+000	9	...........	0	1467.79
	258	51.8	-2.57772E-001	-2.36880E-004	0.00000E+000	-2.57997E-001	0.00000E+000	9	...........	0	1467.79
	260	52.2	-2.59780E-001	-2.59801E-004	0.00000E+000	-2.59996E-001	0.00000E+000	9	...........	0	1467.79
	262	52.6	-2.61763E-001	-2.83997E-004	0.00000E+000	-2.61996E-001	0.00000E+000	9	...........	0	1467.79
	264	53	-2.63774E-001	-3.09532E-004	0.00000E+000	-2.63996E-001	0.00000E+000	9	...........	0	1467.79
	266	53.4	-2.65760E-001	-3.36523E-004	0.00000E+000	-2.65996E-001	0.00000E+000	9	...........	0	1467.79
	268	53.8	-2.67755E-001	-3.64753E-004	0.00000E+000	-2.67996E-001	0.00000E+000	9	...........	0	1467.79
	270	54.2	-2.69771E-001	-3.94004E-004	0.00000E+000	-2.69995E-001	0.00000E+000	9	...........	0	1467.79
	272	54.6	-2.71767E-001	-4.24549E-004	0.00000E+000	-2.71995E-001	0.00000E+000	9	...........	0	1467.79
	274	55	-2.73747E-001	-4.56279E-004	0.00000E+000	-2.73995E-001	0.00000E+000	9	...........	0	1467.79
	276	55.4	-2.75761E-001	-4.89913E-004	0.00000E+000	-2.75995E-001	0.00000E+000	9	...........	0	1467.79
	278	55.8	-2.77750E-001	-5.24677E-004	0.00000E+000	-2.77995E-001	0.00000E+000	9	...........	0	1467.79
	280	56.2	-2.79759E-001	-5.59871E-004	0.00000E+000	-2.79994E-001	0.00000E+000	9	...........	0	1467.79
	282	56.6	-2.81762E-001	-5.94617E-004	0.00000E+000	-2.81994E-001	0.00000E+000	9	...........	0	1467.79
	284	57	-2.83757E-001	-6.30990E-004	0.00000E+000	-2.83994E-001	0.00000E+000	9	...........	0	1467.79
	286	57.4	-2.85765E-001	-6.68945E-004	0.00000E+000	-2.85994E-001	0.00000E+000	9	...........	0	1467.79
	288	57.8	-2.87757E-001	-7.07859E-004	0.00000E+000	-2.87994E-001	0.00000E+000	9	...........	0	1467.79
	290	58.2	-2.89761E-001	-7.47520E-004	0.00000E+000	-2.89993E-001	0.00000E+000	9	...........	0	1467.79
	292	58.6	-2.91780E-001	-7.88243E-004	0.00000E+000	-2.92006E-001	0.00000E+000	9	...........	0	1467.79
	294	59	-2.93758E-001	-8.29419E-004	0.00000E+000	-2.94005E-001	0.00000E+000	9	...........	0	1467.79
	296	59.4	-2.95794E-001	-8.72337E-004	0.00000E+000	-2.96005E-001	0.00000E+000	9	...........	0	1467.79
	298	59.8	-2.97784E-001	-9.14672E-004	0.00000E+000	-2.98005E-001	0.00000E+000	10	...........	0	1467.79
	300	60.2	-2.99783E-001	-9.60500E-004	0.00000E+000	-3.00005E-001	0.00000E+000	10	...........	0	1467.79
	302	60.6	-3.01771E-001	-1.00540E-003	0.00000E+000	-3.02005E-001	0.00000E+000	10	...........	0	1467.88
	304	61	-3.03781E-001	-1.05028E-003	0.00000E+000	-3.04004E-001	0.00000E+000	10	...........	0	1467.88
	306	61.4	-3.05779E-001	-1.09534E-003	0.00000E+000	-3.06004E-001	0.00000E+000	10	...........	0	1467.88
	308	61.8	-3.07777E-001	-1.14077E-003	0.00000E+000	-3.08004E-001	0.00000E+000	10	...........	0	1467.79
	310	62.2	-3.09788E-001	-1.18826E-003	0.00000E+000	-3.10004E-001	0.00000E+000	10	...........	0	1467.79
	312	62.6	-3.11785E-001	-1.23508E-003	0.00000E+000	-3.12004E-001	0.00000E+000	10	...........	0	1467.79
	314	63	-3.13769E-001	-1.28145E-003	0.00000E+000	-3.14003E-001	0.00000E+000	10	...........	0	1467.79
	316	63.4	-3.15795E-001	-1.33002E-003	0.00000E+000	-3.16003E-001	0.00000E+000	10	...........	0	1467.79
	318	63.8	-3.17772E-001	-1.37976E-003	0.00000E+000	-3.18003E-001	0.00000E+000	10	...........	0	1467.79
	320	64.2	-3.19760E-001	-1.42834E-003	0.00000E+000	-3.20003E-001	0.00000E+000	10	...........	0	1467.79
	322	64.6	-3.21799E-001	-1.47821E-003	0.00000E+000	-3.22003E-001	0.00000E+000	10	...........	0	1467.79
	324	65	-3.23792E-001	-1.52683E-003	0.00000E+000	-3.24002E-001	0.00000E+000	10	...........	0	1467.79
	326	65.4	-3.25783E-001	-1.57543E-003	0.00000E+000	-3.26002E-001	0.00000E+000	10	...........	0	1467.79
	328	65.8	-3.27779E-001	-1.62397E-003	0.00000E+000	-3.28002E-001	0.00000E+000	10	...........	0	1467.79
	330	66.2	-3.29784E-001	-1.67477E-003	0.00000E+000	-3.30002E-001	0.00000E+000	10	...........	0	1467.79
	332	66.6	-3.31777E-001	-1.72509E-003	0.00000E+000	-3.32002E-001	0.00000E+000	10	...........	0	1467.79
	334	67	-3.33799E-001	-1.77624E-003	0.00000E+000	-3.34001E-001	0.00000E+000	10	...........	0	1467.79
	336	67.4	-3.35792E-001	-1.82522E-003	0.00000E+000	-3.36001E-001	0.00000E+000	10	...........	0	1467.79
	338	67.8	-3.37792E-001	-1.87425E-003	0.00000E+000	-3.38001E-001	0.00000E+000	10	...........	0	1467.79
	340	68.2	-3.39788E-001	-1.92345E-003	0.00000E+000	-3.40001E-001	0.00000E+000	10	...........	0	1467.79
	342	68.6	-3.41789E-001	-1.97250E-003	0.00000E+000	-3.42001E-001	0.00000E+000	10	...........	0	1467.79
	344	69	-3.43790E-001	-2.02402E-003	0.00000E+000	-3.44000E-001	0.00000E+000	10	...........	0	1467.79
	346	69.4	-3.45829E-001	-2.07751E-003	0.00000E+000	-3.46000E-001	0.00000E+000	10	...........	0	1467.79
	348	69.8	-3.47795E-001	-2.12654E-003	0.00000E+000	-3.48000E-001	0.00000E+000	10	...........	0	1467.79
	350	70.2	-3.49790E-001	-2.17548E-003	0.00000E+000	-3.50000E-001	0.00000E+000	10	...........	0	1467.79
	352	70.6	-3.51789E-001	-2.22183E-003	0.00000E+000	-3.52000E-001	0.00000E+000	10	...........	0	1467.79
	354	71	-3.53786E-001	-2.27434E-003	0.00000E+000	-3.53999E-001	0.00000E+000	10	...........	0	1467.79
	356	71.4	-3.55779E-001	-2.32343E-003	0.00000E+000	-3.55999E-001	0.00000E+000	10	...........	0	1467.79
	358	71.8	-3.57786E-001	-2.37773E-003	0.00000E+000	-3.57999E-001	0.00000E+000	10	...........	0	1467.79
	360	72.2	-3.59795E-001	-2.42561E-003	0.00000E+000	-3.59999E-001	0.00000E+000	10	...........	0	1467.79
	362	72.6	-3.61812E-001	-2.47400E-003	0.00000E+000	-3.61998E-001	0.00000E+000	10	...........	0	1467.79
	364	73	-3.63789E-001	-2.52222E-003	0.00000E+000	-3.63998E-001	0.00000E+000	10	...........	0	1467.79
	366	73.4	-3.65805E-001	-2.57033E-003	0.00000E+000	-3.65998E-001	0.00000E+000	10	...........	0	1467.79
	368	73.8	-3.67800E-001	-2.62320E-003	0.00000E+000	-3.67998E-001	0.00000E+000	10	...........	0	1467.79
	370	74.2	-3.69797E-001	-2.67410E-003	0.00000E+000	-3.69998E-001	0.00000E+000	10	...........	0	1467.79
	372	74.6	-3.71818E-001	-2.72182E-003	0.00000E+000	-3.71997E-001	0.00000E+000	10	...........	0	1467.79
	374	75	-3.73813E-001	-2.76922E-003	0.00000E+000	-3.73997E-001	0.00000E+000	10	...........	0	1467.79
	376	75.4	-3.75795E-001	-2.82067E-003	0.00000E+000	-3.75997E-001	0.00000E+000	10	...........	0	1467.79
	378	75.8	-3.77789E-001	-2.87270E-003	0.00000E+000	-3.77997E-001	0.00000E+000	10	...........	0	1467.79
	380	76.2	-3.79796E-001	-2.91989E-003	0.00000E+000	-3.79997E-001	0.00000E+000	10	...........	0	1467.79
	382	76.6	-3.81802E-001	-2.96685E-003	0.00000E+000	-3.81996E-001	0.00000E+000	10	...........	0	1467.79
	384	77	-3.83789E-001	-3.01139E-003	0.00000E+000	-3.83996E-001	0.00000E+000	10	...........	0	1467.79
	386	77.4	-3.85815E-001	-3.05876E-003	0.00000E+000	-3.85996E-001	0.00000E+000	10	...........	0	1467.79
	388	77.8	-3.87799E-001	-3.11325E-003	0.00000E+000	-3.87996E-001	0.00000E+000	10	...........	0	1467.79
	390	78.2	-3.89804E-001	-3.15846E-003	0.00000E+000	-3.89996E-001	0.00000E+000	10	...........	0	1467.79
	392	78.6	-3.91813E-001	-3.20100E-003	0.00000E+000	-3.91995E-001	0.00000E+000	10	...........	0	1467.79
	394	79	-3.93813E-001	-3.24979E-003	0.00000E+000	-3.93995E-001	0.00000E+000	10	...........	0	1467.79
	396	79.4	-3.95803E-001	-3.29563E-003	0.00000E+000	-3.95995E-001	0.00000E+000	10	...........	0	1467.79
	398	79.8	-3.97815E-001	-3.34922E-003	0.00000E+000	-3.97995E-001	0.00000E+000	10	...........	0	1467.79
	400	80.2	-3.99814E-001	-3.39572E-003	0.00000E+000	-3.99995E-001	0.00000E+000	10	...........	0	1467.79
	402	80.6	-4.01806E-001	-3.43613E-003	0.00000E+000	-4.01994E-001	0.00000E+000	10	...........	0	1467.79
	404	81	-4.03803E-001	-3.48010E-003	0.00000E+000	-4.03994E-001	0.00000E+000	10	...........	0	1467.79
	406	81.4	-4.05807E-001	-3.52684E-003	0.00000E+000	-4.05994E-001	0.00000E+000	10	...........	0	1467.79
	408	81.8	-4.07790E-001	-3.57696E-003	0.00000E+000	-4.07994E-001	0.00000E+000	10	...........	0	1467.79
	410	82.2	-4.09822E-001	-3.61951E-003	0.00000E+000	-4.09994E-001	0.00000E+000	10	...........	0	1467.79
	412	82.6	-4.11834E-001	-3.66050E-003	0.00000E+000	-4.11993E-001	0.00000E+000	10	...........	0	1467.79
	414	83	-4.13807E-001	-3.71185E-003	0.00000E+000	-4.13993E-001	0.00000E+000	10	...........	0	1467.79
	416	83.4	-4.15821E-001	-3.75851E-003	0.00000E+000	-4.16005E-001	0.00000E+000	10	...........	0	1467.79
	418	83.8	-4.17841E-001	-3.80871E-003	0.00000E+000	-4.18005E-001	0.00000E+000	10	...........	0	1467.79
	420	84.2	-4.19811E-001	-3.85375E-003	0.00000E+000	-4.20005E-001	0.00000E+000	10	...........	0	1467.79
	422	84.6	-4.21820E-001	-3.90018E-003	0.00000E+000	-4.22005E-001	0.00000E+000	10	...........	0	1467.79
	424	85	-4.23839E-001	-3.94970E-003	0.00000E+000	-4.24005E-001	0.00000E+000	10	...........	0	1467.79
	426	85.4	-4.25835E-001	-3.99111E-003	0.00000E+000	-4.26004E-001	0.00000E+000	10	...........	0	1467.79
	428	85.8	-4.27815E-001	-4.04170E-003	0.00000E+000	-4.28004E-001	0.00000E+000	10	...........	0	1467.79
	430	86.2	-4.29824E-001	-4.09025E-003	0.00000E+000	-4.30004E-001	0.00000E+000	10	...........	0	1467.79
	432	86.6	-4.31810E-001	-4.13529E-003	0.00000E+000	-4.32004E-001	0.00000E+000	10	...........	0	1467.79
	434	87	-4.33821E-001	-4.18150E-003	0.00000E+000	-4.34004E-001	0.00000E+000	10	...........	0	1467.79
	436	87.4	-4.35842E-001	-4.22579E-003	0.00000E+000	-4.36003E-001	0.00000E+000	10	...........	0	1467.79
	438	87.8	-4.37831E-001	-4.31686E-003	0.00000E+000	-4.38003E-001	0.00000E+000	10	...........	0	1467.79
	440	88.2	-4.39847E-001	-4.35275E-003	0.00000E+000	-4.40003E-001	0.00000E+000	10	...........	0	1467.79
	442	88.6	-4.41833E-001	-4.39306E-003	0.00000E+000	-4.42003E-001	0.00000E+000	10	...........	0	1467.79
	444	89	-4.43838E-001	-4.43251E-003	0.00000E+000	-4.44003E-001	0.00000E+000	10	...........	0	1467.79
	446	89.4	-4.45827E-001	-4.48247E-003	0.00000E+000	-4.46002E-001	0.00000E+000	10	...........	0	1467.79
	448	89.8	-4.47807E-001	-4.53915E-003	0.00000E+000	-4.48002E-001	0.00000E+000	10	...........	0	1467.79
	450	90.2	-4.49853E-001	-4.58431E-003	0.00000E+000	-4.50002E-001	0.00000E+000	10	...........	0	1467.79
	452	90.6	-4.51848E-001	-4.62996E-003	0.00000E+000	-4.52002E-001	0.00000E+000	10	...........	0	1467.79
	454	91	-4.53838E-001	-4.67421E-003	0.00000E+000	-4.54002E-001	0.00000E+000	10	...........	0	1467.79
	456	91.4	-4.55838E-001	-4.72513E-003	0.00000E+000	-4.56001E-001	0.00000E+000	10	...........	0	1467.79
	458	91.8	-4.57843E-001	-4.80393E-003	0.00000E+000	-4.58001E-001	0.00000E+000	10	...........	0	1467.79
	460	92.2	-4.59816E-001	-4.84260E-003	0.00000E+000	-4.60001E-001	0.00000E+000	10	...........	0	1467.79
	462	92.6	-4.61865E-001	-4.88650E-003	0.00000E+000	-4.62001E-001	0.00000E+000	10	...........	0	1467.79
	464	93	-4.63850E-001	-4.92603E-003	0.00000E+000	-4.64001E-001	0.00000E+000	10	...........	0	1467.79
	466	93.4	-4.65860E-001	-5.00236E-003	0.00000E+000	-4.66000E-001	0.00000E+000	10	...........	0	1467.79
	468	93.8	-4.67846E-001	-5.04807E-003	0.00000E+000	-4.68000E-001	0.00000E+000	10	...........	0	1467.79
	470	94.2	-4.69834E-001	-5.08592E-003	0.00000E+000	-4.70000E-001	0.00000E+000	10	...........	0	1467.79
	472	94.6	-4.71838E-001	-5.15909E-003	0.00000E+000	-4.72000E-001	0.00000E+000	10	...........	0	1467.79
	474	95	-4.73865E-001	-5.21074E-003	0.00000E+000	-4.74000E-001	0.00000E+000	10	...........	0	1467.79
	476	95.4	-4.75846E-001	-5.26546E-003	0.00000E+000	-4.75999E-001	0.00000E+000	10	...........	0	1467.79
	478	95.8	-4.77837E-001	-5.30567E-003	0.00000E+000	-4.77999E-001	0.00000E+000	10	...........	0	1467.79
	480	96.2	-4.79852E-001	-5.34953E-003	0.00000E+000	-4.79999E-001	0.00000E+000	10	...........	0	1467.79
	482	96.6	-4.81851E-001	-5.39854E-003	0.00000E+000	-4.81999E-001	0.00000E+000	10	...........	0	1467.79
	484	97	-4.83834E-001	-5.49192E-003	0.00000E+000	-4.83999E-001	0.00000E+000	10	...........	0	1467.79
	486	97.4	-4.85837E-001	-5.54469E-003	0.00000E+000	-4.85998E-001	0.00000E+000	10	...........	0	1467.79
	488	97.8	-4.87858E-001	-5.59677E-003	0.00000E+000	-4.87998E-001	0.00000E+000	10	...........	0	1467.79
	490	98.2	-4.89852E-001	-5.64075E-003	0.00000E+000	-4.89998E-001	0.00000E+000	10	...........	0	1467.79
	492	98.6	-4.91850E-001	-5.71697E-003	0.00000E+000	-4.91998E-001	0.00000E+000	10	...........	0	1467.79
	494	99	-4.93850E-001	-5.78753E-003	0.00000E+000	-4.93998E-001	0.00000E+000	10	...........	0	1467.79
	496	99.4	-4.95857E-001	-5.85392E-003	0.00000E+000	-4.95997E-001	0.00000E+000	10	...........	0	1467.79
	498	99.8	-4.97849E-001	-5.91307E-003	0.00000E+000	-4.97997E-001	0.00000E+000	10	...........	0	1467.79
	500	100.2	-4.99853E-001	-6.01372E-003	0.00000E+000	-4.99997E-001	0.00000E+000	10	...........	0	1467.79
	502	100.6	-5.01857E-001	-6.06597E-003	0.00000E+000	-5.01997E-001	0.00000E+000	10	...........	0	1467.79
	504	101	-5.03856E-001	-6.12460E-003	0.00000E+000	-5.03997E-001	0.00000E+000	10	...........	0	1467.79
	506	101.4	-5.05841E-001	-6.17617E-003	0.00000E+000	-5.05996E-001	0.00000E+000	10	...........	0	1467.79
	508	101.8	-5.07838E-001	-6.25480E-003	0.00000E+000	-5.07996E-001	0.00000E+000	10	...........	0	1467.79
	510	102.2	-5.09835E-001	-6.34498E-003	0.00000E+000	-5.09996E-001	0.00000E+000	10	...........	0	1467.79
	512	102.6	-5.11827E-001	-6.38163E-003	0.00000E+000	-5.11996E-001	0.00000E+000	10	...........	0	1467.79
	514	103	-5.13848E-001	-6.44867E-003	0.00000E+000	-5.13996E-001	0.00000E+000	10	...........	0	1467.79
	516	103.4	-5.15848E-001	-6.51211E-003	0.00000E+000	-5.15995E-001	0.00000E+000	10	...........	0	1467.79
	518	103.8	-5.17837E-001	-6.61899E-003	0.00000E+000	-5.17995E-001	0.00000E+000	10	...........	0	1467.79
	520	104.2	-5.19839E-001	-6.67533E-003	0.00000E+000	-5.19995E-001	0.00000E+000	10	...........	0	1467.79
	522	104.6	-5.21846E-001	-6.73774E-003	0.00000E+000	-5.21995E-001	0.00000E+000	10	...........	0	1467.79
	524	105	-5.23836E-001	-6.79466E-003	0.00000E+000	-5.23995E-001	0.00000E+000	10	...........	0	1467.79
	526	105.4	-5.25864E-001	-6.87125E-003	0.00000E+000	-5.25994E-001	0.00000E+000	10	...........	0	1467.79
	528	105.8	-5.27860E-001	-6.93540E-003	0.00000E+000	-5.27994E-001	0.00000E+000	10	...........	0	1467.79
	530	106.2	-5.29850E-001	-7.00801E-003	0.00000E+000	-5.29994E-001	0.00000E+000	10	...........	0	1467.79
	532	106.6	-5.31851E-001	-7.04833E-003	0.00000E+000	-5.31994E-001	0.00000E+000	10	...........	0	1467.79
	534	107	-5.33846E-001	-7.14068E-003	0.00000E+000	-5.33993E-001	0.00000E+000	10	...........	0	1467.79
	536	107.4	-5.35842E-001	-7.18953E-003	0.00000E+000	-5.35993E-001	0.00000E+000	10	...........	0	1467.79
	538	107.8	-5.37852E-001	-7.26615E-003	0.00000E+000	-5.37993E-001	0.00000E+000	10	...........	0	1467.79
	540	108.2	-5.39875E-001	-7.30910E-003	0.00000E+000	-5.39993E-001	0.00000E+000	10	...........	0	1467.79
	542	108.6	-5.41865E-001	-7.36055E-003	0.00000E+000	-5.42005E-001	0.00000E+000	10	...........	0	1467.88
	544	109	-5.43872E-001	-7.40843E-003	0.00000E+000	-5.44005E-001	0.00000E+000	10	...........	0	1467.88
	546	109.4	-5.45867E-001	-7.53203E-003	0.00000E+000	-5.46005E-001	0.00000E+000	10	...........	0	1467.88
	548	109.8	-5.47859E-001	-7.66217E-003	0.00000E+000	-5.48005E-001	0.00000E+000	10	...........	0	1467.79
	550	110.2	-5.49869E-001	-7.70997E-003	0.00000E+000	-5.50004E-001	0.00000E+000	10	...........	0	1467.79
	552	110.6	-5.51871E-001	-7.75613E-003	0.00000E+000	-5.52004E-001	0.00000E+000	10	...........	0	1467.88
	554	111	-5.53876E-001	-7.86020E-003	0.00000E+000	-5.54004E-001	0.00000E+000	10	...........	0	1467.88
	556	111.4	-5.55865E-001	-7.89052E-003	0.00000E+000	-5.56004E-001	0.00000E+000	10	...........	0	1467.88
	558	111.8	-5.57864E-001	-7.91647E-003	0.00000E+000	-5.58004E-001	0.00000E+000	10	...........	0	1467.88
	560	112.2	-5.59848E-001	-7.96686E-003	0.00000E+000	-5.60003E-001	0.00000E+000	10	...........	0	1467.88
	562	112.6	-5.61872E-001	-8.15161E-003	0.00000E+000	-5.62003E-001	0.00000E+000	10	...........	0	1467.88
	564	113	-5.63868E-001	-8.21096E-003	0.00000E+000	-5.64003E-001	0.00000E+000	10	...........	0	1467.88
	566	113.4	-5.65875E-001	-8.24219E-003	0.00000E+000	-5.66003E-001	0.00000E+000	10	...........	0	1467.88
	568	113.8	-5.67900E-001	-8.29714E-003	0.00000E+000	-5.68003E-001	0.00000E+000	10	...........	0	1467.88
	570	114.2	-5.69887E-001	-8.45757E-003	0.00000E+000	-5.70002E-001	0.00000E+000	10	...........	0	1467.88
	572	114.6	-5.71868E-001	-8.50128E-003	0.00000E+000	-5.72002E-001	0.00000E+000	10	...........	0	1467.88
	574	115	-5.73878E-001	-8.56041E-003	0.00000E+000	-5.74002E-001	0.00000E+000	10	...........	0	1467.88
	576	115.4	-5.75867E-001	-8.59870E-003	0.00000E+000	-5.76002E-001	0.00000E+000	10	...........	0	1467.88
	578	115.8	-5.77883E-001	-8.69486E-003	0.00000E+000	-5.78001E-001	0.00000E+000	10	...........	0	1467.88
	580	116.2	-5.79880E-001	-8.74133E-003	0.00000E+000	-5.80001E-001	0.00000E+000	10	...........	0	1467.88
	582	116.6	-5.81878E-001	-8.82271E-003	0.00000E+000	-5.82001E-001	0.00000E+000	10	...........	0	1467.88
	584	117	-5.83884E-001	-8.96056E-003	0.00000E+000	-5.84001E-001	0.00000E+000	11	...........	0	1467.88
	586	117.4	-5.85900E-001	-8.98976E-003	0.00000E+000	-5.86001E-001	0.00000E+000	11	...........	0	1467.88
	588	117.8	-5.87880E-001	-9.10318E-003	0.00000E+000	-5.88001E-001	0.00000E+000	11	...........	0	1467.88
	590	118.2	-5.89910E-001	-9.30545E-003	0.00000E+000	-5.90000E-001	0.00000E+000	11	...........	0	1467.88
	592	118.6	-5.91900E-001	-9.35141E-003	0.00000E+000	-5.92000E-001	0.00000E+000	11	...........	0	1467.88
	594	119	-5.93898E-001	-9.38011E-003	0.00000E+000	-5.94000E-001	0.00000E+000	11	...........	0	1467.88
	596	119.4	-5.95896E-001	-9.45098E-003	0.00000E+000	-5.96000E-001	0.00000E+000	11	...........	0	1467.88
	598	119.8	-5.97899E-001	-9.49963E-003	0.00000E+000	-5.97999E-001	0.00000E+000	11	...........	0	1467.79
	600	120.2	-5.99885E-001	-9.61622E-003	0.00000E+000	-5.99999E-001	0.00000E+000	11	...........	0	1467.79