File: input/HER_#1_#1.DTA
EXPLAIN
TAG	LSV
TITLE	LABEL	HER	Test Identifier
DATE	LABEL	17.7.2024	Date
TIME	LABEL	10:34:02	Time
NOTES	NOTES	1	Notes...

PSTAT	PSTAT	IFC1010-34090	Potentiostat
VINIT	POTEN	0.00000E+000	F	Initial E (V)
VFINAL	POTEN	-6.00000E-001	F	Final E (V)
SCANRATE	QUANT	4.99999E+000	Scan Rate (mV/s)
STEPSIZE	QUANT	1.00000E+000	Step Size (mV)
IMODE	SELECTOR	0	I/E Range Mode
IRANGE	QUANT	3.00000E+001	Max Current (mA)
AREA	QUANT	1.00000E+000	Sample Area (cm^2)
EQDELAY	QUANT	0.00000E+000	Equil. Time (s)
IRCOMP	SELECTOR	0	IRComp
PFCOR	QUANT	5.00000E+001	PF Corr. (ohm)
SAMPLINGMODE	SELECTOR	1	Sampling Mode
EOC	QUANT	0.7205974	Open Circuit (V)
ELECTRODETYPE	SELECTOR	0	Electrode Type
STRIPPING	TOGGLE	F	Used for Stripping
SEQUENCER	TOGGLE	TRUE	Run as Sequence
PSTATMODEL	IQUANT	64	Pstat Model
PSTATSECTION	LABEL	IFC1010-34090	Pstat Section
PSTATSERIALNO	LABEL	34090	Pstat Serial Number
CTRLMODE	IQUANT	1	Control Mode
ELECTROMETER	IQUANT	0	RE=0 or CS=1
IESTAB	IQUANT	2	I/E Stability
CASPEED	IQUANT	4	Control Amp Speed
CONVENTION	IQUANT	1	Current Convention
ICHRANGE	IQUANT	2	Ich Range
ICHRANGEMODE	TOGGLE	F	Ich Auto Range
ICHOFFSETENABLE	TOGGLE	F	Ich Offset Enable
ICHOFFSET	QUANT	0	Ich Offset (V)
ICHFILTER	IQUANT	3	Ich Filter
VCHRANGE	IQUANT	2	Vch Range
VCHRANGEMODE	TOGGLE	F	Vch Auto Range
VCHOFFSETENABLE	TOGGLE	F	Vch Offset Enable
VCHOFFSET	QUANT	0	Vch Offset (V)
VCHFILTER	IQUANT	3	Vch Filter
IERANGELOWERLIMIT	IQUANT	4	I/E Range Lower Limit
IERANGEMODE	TOGGLE	T	I/E AutoRange
IERANGE	IQUANT	11	I/E Range
ACHSELECT	IQUANT	0	Ach Select
ACHRANGE	IQUANT	2	Ach Range
ACHOFFSETENABLE	TOGGLE	F	Ach Offset Enable
ACHOFFSET	QUANT	0	Ach Offset (V)
ACHFILTER	IQUANT	1	Ach Filter
SENSECABLEID	IQUANT	13	Sense Cable ID
PWRCABLEID	IQUANT	13	Power Cable ID
DCCALDATE	LABEL	1/30/2024	DC Calibration Date
ACCALDATE	LABEL	1/8/2024	AC Calibration Date
FRAMEWORKVERSION	LABEL	7.10.3	Framework Version
INSTRUMENTVERSION	LABEL	4.91	Instrument Version
COMMVERSION	LABEL	3.10	Communications Version
CPUPLDVERSION	LABEL	2.22	CPU PLD Version
CTRLPLDVERSION	LABEL	0.00	CTRL PLD Version
PSTATPLDVERSION	LABEL	0.00	PSTAT PLD Version
CURVE	TABLE	601
	Pt	T	Vf	Im	Vu	Sig	Ach	IERange	Over	Cycle	Temp
	#	s	V vs. Ref.	A	V	V	V	#	bits	#	deg C
	0	0.2	3.37222E-004	-8.63702E-006	0.00000E+000	2.17557E-006	0.00000E+000	11	...........	0	1467.61
	2	0.6	-1.71171E-003	1.36344E-006	0.00000E+000	-1.99762E-003	0.00000E+000	9	...........	0	1467.61
	4	1	-3.69599E-003	9.74828E-007	0.00000E+000	-3.99742E-003	0.00000E+000	7	...........	0	1467.61
	6	1.4	-5.69248E-003	9.37803E-007	0.00000E+000	-5.99721E-003	0.00000E+000	7	...........	0	1467.61
	8	1.8	-7.67991E-003	8.83594E-007	0.00000E+000	-7.99701E-003	0.00000E+000	7	...........	0	1467.61
	10	2.2	-9.68601E-003	8.38996E-007	0.00000E+000	-9.99680E-003	0.00000E+000	7	...........	0	1467.07
	12	2.6	-1.17006E-002	8.06321E-007	0.00000E+000	-1.19966E-002	0.00000E+000	7	...........	0	1467.07
	14	3	-1.37088E-002	7.40137E-007	0.00000E+000	-1.39964E-002	0.00000E+000	6	...........	0	1467.07
	16	3.4	-1.57173E-002	6.93389E-007	0.00000E+000	-1.59962E-002	0.00000E+000	6	...........	0	1467.07
	18	3.8	-1.77034E-002	6.52349E-007	0.00000E+000	-1.79960E-002	0.00000E+000	6	...........	0	1467.07
	20	4.2	-1.97201E-002	6.12739E-007	0.00000E+000	-1.99958E-002	0.00000E+000	6	...........	0	1467.16
	22	4.6	-2.16920E-002	5.82320E-007	0.00000E+000	-2.19956E-002	0.00000E+000	6	...........	0	1467.16
	24	5	-2.37027E-002	5.40262E-007	0.00000E+000	-2.39954E-002	0.00000E+000	6	...........	0	1467.07
	26	5.4	-2.57255E-002	5.09567E-007	0.00000E+000	-2.59952E-002	0.00000E+000	6	...........	0	1467.07
	28	5.8	-2.77138E-002	4.69774E-007	0.00000E+000	-2.79950E-002	0.00000E+000	6	...........	0	1467.07
	30	6.2	-2.97310E-002	4.34238E-007	0.00000E+000	-2.99948E-002	0.00000E+000	6	...........	0	1467.07
	32	6.6	-3.17189E-002	3.84333E-007	0.00000E+000	-3.19946E-002	0.00000E+000	6	...........	0	1467.07
	34	7	-3.37100E-002	3.56858E-007	0.00000E+000	-3.39944E-002	0.00000E+000	6	...........	0	1467.07
	36	7.4	-3.57121E-002	3.19771E-007	0.00000E+000	-3.59942E-002	0.00000E+000	6	...........	0	1467.07
	38	7.8	-3.77003E-002	2.89105E-007	0.00000E+000	-3.79940E-002	0.00000E+000	6	...........	0	1467.07
	40	8.2	-3.97194E-002	2.58877E-007	0.00000E+000	-3.99938E-002	0.00000E+000	6	...........	0	1467.07
	42	8.6	-4.17257E-002	2.17120E-007	0.00000E+000	-4.20060E-002	0.00000E+000	6	...........	0	1467.07
	44	9	-4.37401E-002	1.86792E-007	0.00000E+000	-4.40058E-002	0.00000E+000	6	...........	0	1467.07
	46	9.4	-4.57141E-002	1.47205E-007	0.00000E+000	-4.60056E-002	0.00000E+000	6	...........	0	1467.07
	48	9.8	-4.77102E-002	1.09207E-007	0.00000E+000	-4.80054E-002	0.00000E+000	6	...........	0	1467.07
	50	10.2	-4.97190E-002	6.98344E-008	0.00000E+000	-5.00052E-002	0.00000E+000	6	...........	0	1467.07
	52	10.6	-5.17558E-002	4.68297E-008	0.00000E+000	-5.20050E-002	0.00000E+000	5	...........	0	1467.07
	54	11	-5.37407E-002	9.48044E-009	0.00000E+000	-5.40048E-002	0.00000E+000	5	...........	0	1467.07
	56	11.4	-5.57195E-002	-2.56529E-008	0.00000E+000	-5.60046E-002	0.00000E+000	5	...........	0	1467.07
	58	11.8	-5.77246E-002	-5.97038E-008	0.00000E+000	-5.80044E-002	0.00000E+000	5	...........	0	1467.07
	60	12.2	-5.97160E-002	-9.55715E-008	0.00000E+000	-6.00042E-002	0.00000E+000	5	....ih..i..	0	1466.80
	62	12.6	-6.17380E-002	-1.47332E-007	0.00000E+000	-6.20040E-002	0.00000E+000	6	...........	0	1466.80
	64	13	-6.37491E-002	-1.78209E-007	0.00000E+000	-6.40038E-002	0.00000E+000	6	...........	0	1466.98
	66	13.4	-6.57460E-002	-2.17548E-007	0.00000E+000	-6.60036E-002	0.00000E+000	6	...........	0	1466.98
	68	13.8	-6.77334E-002	-2.55424E-007	0.00000E+000	-6.80034E-002	0.00000E+000	6	...........	0	1466.98
	70	14.2	-6.97274E-002	-2.90995E-007	0.00000E+000	-7.00032E-002	0.00000E+000	6	...........	0	1466.98
	72	14.6	-7.17193E-002	-3.18671E-007	0.00000E+000	-7.20030E-002	0.00000E+000	6	...........	0	1466.98
	74	15	-7.37301E-002	-3.53588E-007	0.00000E+000	-7.40028E-002	0.00000E+000	6	...........	0	1467.07
	76	15.4	-7.57257E-002	-3.87538E-007	0.00000E+000	-7.60026E-002	0.00000E+000	6	...........	0	1467.07
	78	15.8	-7.77363E-002	-4.20720E-007	0.00000E+000	-7.80024E-002	0.00000E+000	6	...........	0	1467.07
	80	16.2	-7.97409E-002	-4.55004E-007	0.00000E+000	-8.00022E-002	0.00000E+000	6	...........	0	1467.07
	82	16.6	-8.17292E-002	-4.80744E-007	0.00000E+000	-8.20020E-002	0.00000E+000	6	...........	0	1467.07
	84	17	-8.37423E-002	-5.14694E-007	0.00000E+000	-8.40018E-002	0.00000E+000	6	...........	0	1467.07
	86	17.4	-8.57315E-002	-5.49412E-007	0.00000E+000	-8.60016E-002	0.00000E+000	6	...........	0	1467.07
	88	17.8	-8.77232E-002	-5.72154E-007	0.00000E+000	-8.80014E-002	0.00000E+000	6	...........	0	1467.07
	90	18.2	-8.97407E-002	-6.04980E-007	0.00000E+000	-9.00012E-002	0.00000E+000	6	...........	0	1467.07
	92	18.6	-9.17396E-002	-6.36204E-007	0.00000E+000	-9.20010E-002	0.00000E+000	6	...........	0	1467.07
	94	19	-9.37280E-002	-6.55183E-007	0.00000E+000	-9.40008E-002	0.00000E+000	6	...........	0	1467.07
	96	19.4	-9.57536E-002	-6.95976E-007	0.00000E+000	-9.60006E-002	0.00000E+000	6	...........	0	1467.07
	98	19.8	-9.77402E-002	-7.29307E-007	0.00000E+000	-9.80004E-002	0.00000E+000	6	...........	0	1467.07
	100	20.2	-9.97230E-002	-7.52383E-007	0.00000E+000	-1.00000E-001	0.00000E+000	6	...........	0	1467.07
	102	20.6	-1.01734E-001	-7.87250E-007	0.00000E+000	-1.02000E-001	0.00000E+000	6	...........	0	1467.07
	104	21	-1.03734E-001	-8.10241E-007	0.00000E+000	-1.04000E-001	0.00000E+000	6	...........	0	1467.07
	106	21.4	-1.05742E-001	-8.28662E-007	0.00000E+000	-1.06000E-001	0.00000E+000	6	...........	0	1467.07
	108	21.8	-1.07744E-001	-8.62833E-007	0.00000E+000	-1.07999E-001	0.00000E+000	6	...........	0	1467.07
	110	22.2	-1.09720E-001	-8.90573E-007	0.00000E+000	-1.09999E-001	0.00000E+000	6	...........	0	1466.98
	112	22.6	-1.11728E-001	-9.26753E-007	0.00000E+000	-1.11999E-001	0.00000E+000	7	...........	0	1466.98
	114	23	-1.13746E-001	-9.69763E-007	0.00000E+000	-1.13999E-001	0.00000E+000	7	...........	0	1466.80
	116	23.4	-1.15745E-001	-1.00137E-006	0.00000E+000	-1.15999E-001	0.00000E+000	7	...........	0	1466.80
	118	23.8	-1.17731E-001	-1.02927E-006	0.00000E+000	-1.17998E-001	0.00000E+000	7	...........	0	1466.80
	120	24.2	-1.19739E-001	-1.06762E-006	0.00000E+000	-1.19998E-001	0.00000E+000	7	...........	0	1467.07
	122	24.6	-1.21748E-001	-1.10685E-006	0.00000E+000	-1.21998E-001	0.00000E+000	7	...........	0	1467.07
	124	25	-1.23731E-001	-1.13959E-006	0.00000E+000	-1.23998E-001	0.00000E+000	7	...........	0	1467.07
	126	25.4	-1.25747E-001	-1.17780E-006	0.00000E+000	-1.25998E-001	0.00000E+000	7	...........	0	1467.07
	128	25.8	-1.27757E-001	-1.22168E-006	0.00000E+000	-1.27997E-001	0.00000E+000	7	...........	0	1467.07
	130	26.2	-1.29752E-001	-1.25463E-006	0.00000E+000	-1.29997E-001	0.00000E+000	7	...........	0	1467.07
	132	26.6	-1.31756E-001	-1.30650E-006	0.00000E+000	-1.31997E-001	0.00000E+000	7	...........	0	1467.07
	134	27	-1.33734E-001	-1.34250E-006	0.00000E+000	-1.33997E-001	0.00000E+000	7	...........	0	1467.07
	136	27.4	-1.35740E-001	-1.40721E-006	0.00000E+000	-1.35996E-001	0.00000E+000	7	...........	0	1467.07
	138	27.8	-1.37744E-001	-1.45784E-006	0.00000E+000	-1.37996E-001	0.00000E+000	7	...........	0	1467.07
	140	28.2	-1.39744E-001	-1.53543E-006	0.00000E+000	-1.39996E-001	0.00000E+000	7	...........	0	1467.07
	142	28.6	-1.41754E-001	-1.58944E-006	0.00000E+000	-1.41996E-001	0.00000E+000	7	...........	0	1467.07
	144	29	-1.43753E-001	-1.67319E-006	0.00000E+000	-1.43996E-001	0.00000E+000	7	...........	0	1467.07
	146	29.4	-1.45755E-001	-1.74666E-006	0.00000E+000	-1.45995E-001	0.00000E+000	7	...........	0	1467.07
	148	29.8	-1.47748E-001	-1.84882E-006	0.00000E+000	-1.47995E-001	0.00000E+000	7	...........	0	1467.07
	150	30.2	-1.49751E-001	-1.96189E-006	0.00000E+000	-1.49995E-001	0.00000E+000	7	...........	0	1467.07
	152	30.6	-1.51737E-001	-2.08034E-006	0.00000E+000	-1.51995E-001	0.00000E+000	7	...........	0	1467.07
	154	31	-1.53758E-001	-2.19623E-006	0.00000E+000	-1.53995E-001	0.00000E+000	7	...........	0	1467.07
	156	31.4	-1.55755E-001	-2.34402E-006	0.00000E+000	-1.55994E-001	0.00000E+000	7	...........	0	1467.07
	158	31.8	-1.57752E-001	-2.52621E-006	0.00000E+000	-1.57994E-001	0.00000E+000	7	...........	0	1467.07
	160	32.2	-1.59759E-001	-2.72044E-006	0.00000E+000	-1.59994E-001	0.00000E+000	7	...........	0	1467.07
	162	32.6	-1.61763E-001	-2.92871E-006	0.00000E+000	-1.61994E-001	0.00000E+000	7	...........	0	1467.07
	164	33	-1.63751E-001	-3.18053E-006	0.00000E+000	-1.63994E-001	0.00000E+000	7	...........	0	1466.98
	166	33.4	-1.65775E-001	-3.47964E-006	0.00000E+000	-1.66006E-001	0.00000E+000	7	...........	0	1466.98
	168	33.8	-1.67766E-001	-3.79084E-006	0.00000E+000	-1.68006E-001	0.00000E+000	7	...........	0	1466.98
	170	34.2	-1.69763E-001	-4.14579E-006	0.00000E+000	-1.70006E-001	0.00000E+000	7	...........	0	1467.07
	172	34.6	-1.71771E-001	-4.56990E-006	0.00000E+000	-1.72005E-001	0.00000E+000	7	...........	0	1467.07
	174	35	-1.73759E-001	-5.02467E-006	0.00000E+000	-1.74005E-001	0.00000E+000	7	...........	0	1467.07
	176	35.4	-1.75765E-001	-5.55278E-006	0.00000E+000	-1.76005E-001	0.00000E+000	7	...........	0	1467.07
	178	35.8	-1.77756E-001	-6.13647E-006	0.00000E+000	-1.78005E-001	0.00000E+000	7	...........	0	1467.07
	180	36.2	-1.79766E-001	-6.78139E-006	0.00000E+000	-1.80005E-001	0.00000E+000	7	...........	0	1467.07
	182	36.6	-1.81770E-001	-7.48885E-006	0.00000E+000	-1.82004E-001	0.00000E+000	7	...........	0	1467.07
	184	37	-1.83774E-001	-8.26068E-006	0.00000E+000	-1.84004E-001	0.00000E+000	7	...........	0	1467.07
	186	37.4	-1.85786E-001	-9.06824E-006	0.00000E+000	-1.86004E-001	0.00000E+000	7	...........	0	1467.07
	188	37.8	-1.87760E-001	-9.93127E-006	0.00000E+000	-1.88004E-001	0.00000E+000	8	...........	0	1467.07
	190	38.2	-1.89777E-001	-1.08290E-005	0.00000E+000	-1.90003E-001	0.00000E+000	8	...........	0	1467.07
	192	38.6	-1.91789E-001	-1.17930E-005	0.00000E+000	-1.92003E-001	0.00000E+000	8	...........	0	1467.07
	194	39	-1.93782E-001	-1.28054E-005	0.00000E+000	-1.94003E-001	0.00000E+000	8	...........	0	1467.07
	196	39.4	-1.95791E-001	-1.39334E-005	0.00000E+000	-1.96003E-001	0.00000E+000	8	...........	0	1467.07
	198	39.8	-1.97774E-001	-1.51862E-005	0.00000E+000	-1.98003E-001	0.00000E+000	8	...........	0	1467.07
	200	40.2	-1.99790E-001	-1.66022E-005	0.00000E+000	-2.00002E-001	0.00000E+000	8	...........	0	1467.07
	202	40.6	-2.01778E-001	-1.82196E-005	0.00000E+000	-2.02002E-001	0.00000E+000	8	...........	0	1467.07
	204	41	-2.03761E-001	-2.00639E-005	0.00000E+000	-2.04002E-001	0.00000E+000	8	...........	0	1467.07
	206	41.4	-2.05784E-001	-2.22340E-005	0.00000E+000	-2.06002E-001	0.00000E+000	8	...........	0	1467.07
	208	41.8	-2.07780E-001	-2.47216E-005	0.00000E+000	-2.08002E-001	0.00000E+000	8	...........	0	1467.07
	210	42.2	-2.09779E-001	-2.75753E-005	0.00000E+000	-2.10001E-001	0.00000E+000	8	...........	0	1467.07
	212	42.6	-2.11782E-001	-3.08398E-005	0.00000E+000	-2.12001E-001	0.00000E+000	8	...........	0	1467.07
	214	43	-2.13767E-001	-3.45903E-005	0.00000E+000	-2.14001E-001	0.00000E+000	8	...........	0	1467.07
	216	43.4	-2.15776E-001	-3.88820E-005	0.00000E+000	-2.16001E-001	0.00000E+000	8	...........	0	1467.07
	218	43.8	-2.17773E-001	-4.37448E-005	0.00000E+000	-2.18001E-001	0.00000E+000	8	...........	0	1467.07
	220	44.2	-2.19786E-001	-4.93071E-005	0.00000E+000	-2.20000E-001	0.00000E+000	8	...........	0	1467.07
	222	44.6	-2.21762E-001	-5.55833E-005	0.00000E+000	-2.22000E-001	0.00000E+000	8	...........	0	1467.07
	224	45	-2.23794E-001	-6.26593E-005	0.00000E+000	-2.24000E-001	0.00000E+000	8	...........	0	1467.07
	226	45.4	-2.25789E-001	-7.06750E-005	0.00000E+000	-2.26000E-001	0.00000E+000	8	...........	0	1467.07
	228	45.8	-2.27755E-001	-7.96413E-005	0.00000E+000	-2.28000E-001	0.00000E+000	8	...........	0	1467.07
	230	46.2	-2.29767E-001	-8.97667E-005	0.00000E+000	-2.29999E-001	0.00000E+000	8	...........	0	1467.07
	232	46.6	-2.31796E-001	-1.00867E-004	0.00000E+000	-2.31999E-001	0.00000E+000	9	...........	0	1467.07
	234	47	-2.33800E-001	-1.16154E-004	0.00000E+000	-2.33999E-001	0.00000E+000	9	...........	0	1467.07
	236	47.4	-2.35799E-001	-1.33511E-004	0.00000E+000	-2.35999E-001	0.00000E+000	9	...........	0	1467.07
	238	47.8	-2.37797E-001	-1.52909E-004	0.00000E+000	-2.37999E-001	0.00000E+000	9	...........	0	1467.07
	240	48.2	-2.39787E-001	-1.75467E-004	0.00000E+000	-2.39998E-001	0.00000E+000	9	...........	0	1467.07
	242	48.6	-2.41782E-001	-2.01009E-004	0.00000E+000	-2.41998E-001	0.00000E+000	9	...........	0	1467.07
	244	49	-2.43796E-001	-2.28951E-004	0.00000E+000	-2.43998E-001	0.00000E+000	9	...........	0	1467.07
	246	49.4	-2.45786E-001	-2.59954E-004	0.00000E+000	-2.45998E-001	0.00000E+000	9	...........	0	1467.07
	248	49.8	-2.47793E-001	-2.93975E-004	0.00000E+000	-2.47998E-001	0.00000E+000	9	...........	0	1467.07
	250	50.2	-2.49775E-001	-3.31208E-004	0.00000E+000	-2.49997E-001	0.00000E+000	9	...........	0	1467.07
	252	50.6	-2.51779E-001	-3.75534E-004	0.00000E+000	-2.51997E-001	0.00000E+000	9	...........	0	1467.07
	254	51	-2.53792E-001	-4.21281E-004	0.00000E+000	-2.53997E-001	0.00000E+000	9	...........	0	1467.07
	256	51.4	-2.55779E-001	-4.72353E-004	0.00000E+000	-2.55997E-001	0.00000E+000	9	...........	0	1467.07
	258	51.8	-2.57805E-001	-5.25356E-004	0.00000E+000	-2.57997E-001	0.00000E+000	9	...........	0	1467.07
	260	52.2	-2.59811E-001	-5.81482E-004	0.00000E+000	-2.59996E-001	0.00000E+000	9	...........	0	1467.07
	262	52.6	-2.61798E-001	-6.40944E-004	0.00000E+000	-2.61996E-001	0.00000E+000	9	...........	0	1467.07
	264	53	-2.63809E-001	-7.03919E-004	0.00000E+000	-2.63996E-001	0.00000E+000	9	...........	0	1467.07
	266	53.4	-2.65799E-001	-7.70052E-004	0.00000E+000	-2.65996E-001	0.00000E+000	9	...........	0	1467.07
	268	53.8	-2.67800E-001	-8.39673E-004	0.00000E+000	-2.67996E-001	0.00000E+000	9	...........	0	1467.07
	270	54.2	-2.69793E-001	-9.12085E-004	0.00000E+000	-2.69995E-001	0.00000E+000	9	...........	0	1467.07
	272	54.6	-2.71806E-001	-9.86323E-004	0.00000E+000	-2.71995E-001	0.00000E+000	10	...........	0	1467.07
	274	55	-2.73804E-001	-1.06491E-003	0.00000E+000	-2.73995E-001	0.00000E+000	10	...........	0	1467.16
	276	55.4	-2.75815E-001	-1.14871E-003	0.00000E+000	-2.75995E-001	0.00000E+000	10	...........	0	1467.16
	278	55.8	-2.77788E-001	-1.23313E-003	0.00000E+000	-2.77995E-001	0.00000E+000	10	...........	0	1467.16
	280	56.2	-2.79794E-001	-1.31995E-003	0.00000E+000	-2.79994E-001	0.00000E+000	10	...........	0	1467.07
	282	56.6	-2.81799E-001	-1.40894E-003	0.00000E+000	-2.81994E-001	0.00000E+000	10	...........	0	1467.07
	284	57	-2.83814E-001	-1.50462E-003	0.00000E+000	-2.83994E-001	0.00000E+000	10	...........	0	1467.07
	286	57.4	-2.85806E-001	-1.60089E-003	0.00000E+000	-2.85994E-001	0.00000E+000	10	...........	0	1467.07
	288	57.8	-2.87791E-001	-1.69665E-003	0.00000E+000	-2.87994E-001	0.00000E+000	10	...........	0	1467.07
	290	58.2	-2.89803E-001	-1.79394E-003	0.00000E+000	-2.89993E-001	0.00000E+000	10	...........	0	1467.07
	292	58.6	-2.91807E-001	-1.89417E-003	0.00000E+000	-2.92006E-001	0.00000E+000	10	...........	0	1467.07
	294	59	-2.93814E-001	-1.99683E-003	0.00000E+000	-2.94005E-001	0.00000E+000	10	...........	0	1467.07
	296	59.4	-2.95832E-001	-2.09950E-003	0.00000E+000	-2.96005E-001	0.00000E+000	10	...........	0	1467.07
	298	59.8	-2.97833E-001	-2.20456E-003	0.00000E+000	-2.98005E-001	0.00000E+000	10	...........	0	1467.07
	300	60.2	-2.99819E-001	-2.31034E-003	0.00000E+000	-3.00005E-001	0.00000E+000	10	...........	0	1467.07
	302	60.6	-3.01808E-001	-2.41763E-003	0.00000E+000	-3.02005E-001	0.00000E+000	10	...........	0	1467.07
	304	61	-3.03815E-001	-2.52441E-003	0.00000E+000	-3.04004E-001	0.00000E+000	10	...........	0	1467.07
	306	61.4	-3.05816E-001	-2.63301E-003	0.00000E+000	-3.06004E-001	0.00000E+000	10	...........	0	1467.07
	308	61.8	-3.07808E-001	-2.74417E-003	0.00000E+000	-3.08004E-001	0.00000E+000	10	...........	0	1467.07
	310	62.2	-3.09832E-001	-2.85409E-003	0.00000E+000	-3.10004E-001	0.00000E+000	10	...........	0	1467.07
	312	62.6	-3.11816E-001	-2.96194E-003	0.00000E+000	-3.12004E-001	0.00000E+000	10	...........	0	1467.07
	314	63	-3.13823E-001	-3.07428E-003	0.00000E+000	-3.14003E-001	0.00000E+000	10	...........	0	1467.07
	316	63.4	-3.15832E-001	-3.18442E-003	0.00000E+000	-3.16003E-001	0.00000E+000	10	...........	0	1467.07
	318	63.8	-3.17806E-001	-3.29172E-003	0.00000E+000	-3.18003E-001	0.00000E+000	10	...........	0	1467.07
	320	64.2	-3.19816E-001	-3.39912E-003	0.00000E+000	-3.20003E-001	0.00000E+000	10	...........	0	1467.07
	322	64.6	-3.21830E-001	-3.50615E-003	0.00000E+000	-3.22003E-001	0.00000E+000	10	...........	0	1467.07
	324	65	-3.23815E-001	-3.61716E-003	0.00000E+000	-3.24002E-001	0.00000E+000	10	...........	0	1467.07
	326	65.4	-3.25826E-001	-3.72046E-003	0.00000E+000	-3.26002E-001	0.00000E+000	10	...........	0	1467.07
	328	65.8	-3.27816E-001	-3.82263E-003	0.00000E+000	-3.28002E-001	0.00000E+000	10	...........	0	1467.07
	330	66.2	-3.29815E-001	-3.92268E-003	0.00000E+000	-3.30002E-001	0.00000E+000	10	...........	0	1467.07
	332	66.6	-3.31812E-001	-4.03813E-003	0.00000E+000	-3.32002E-001	0.00000E+000	10	...........	0	1467.07
	334	67	-3.33834E-001	-4.13458E-003	0.00000E+000	-3.34001E-001	0.00000E+000	10	...........	0	1467.07
	336	67.4	-3.35838E-001	-4.23150E-003	0.00000E+000	-3.36001E-001	0.00000E+000	10	...........	0	1467.07
	338	67.8	-3.37817E-001	-4.32633E-003	0.00000E+000	-3.38001E-001	0.00000E+000	10	...........	0	1467.07
	340	68.2	-3.39819E-001	-4.44419E-003	0.00000E+000	-3.40001E-001	0.00000E+000	10	...........	0	1467.07
	342	68.6	-3.41833E-001	-4.53531E-003	0.00000E+000	-3.42001E-001	0.00000E+000	10	...........	0	1467.07
	344	69	-3.43817E-001	-4.62506E-003	0.00000E+000	-3.44000E-001	0.00000E+000	10	...........	0	1467.07
	346	69.4	-3.45845E-001	-4.71330E-003	0.00000E+000	-3.46000E-001	0.00000E+000	10	...........	0	1467.07
	348	69.8	-3.47839E-001	-4.81817E-003	0.00000E+000	-3.48000E-001	0.00000E+000	10	...........	0	1467.07
	350	70.2	-3.49823E-001	-4.93115E-003	0.00000E+000	-3.50000E-001	0.00000E+000	10	...........	0	1467.07
	352	70.6	-3.51823E-001	-5.01114E-003	0.00000E+000	-3.52000E-001	0.00000E+000	10	...........	0	1467.07
	354	71	-3.53830E-001	-5.09214E-003	0.00000E+000	-3.53999E-001	0.00000E+000	10	...........	0	1467.07
	356	71.4	-3.55806E-001	-5.17094E-003	0.00000E+000	-3.55999E-001	0.00000E+000	10	...........	0	1467.07
	358	71.8	-3.57819E-001	-5.28184E-003	0.00000E+000	-3.57999E-001	0.00000E+000	10	...........	0	1467.07
	360	72.2	-3.59833E-001	-5.34898E-003	0.00000E+000	-3.59999E-001	0.00000E+000	10	...........	0	1467.07
	362	72.6	-3.61838E-001	-5.41166E-003	0.00000E+000	-3.61998E-001	0.00000E+000	10	...........	0	1467.07
	364	73	-3.63828E-001	-6.21509E-003	0.00000E+000	-3.63998E-001	0.00000E+000	10	...........	0	1467.07
	366	73.4	-3.65827E-001	-6.26195E-003	0.00000E+000	-3.65998E-001	0.00000E+000	10	...........	0	1467.07
	368	73.8	-3.67822E-001	-6.32009E-003	0.00000E+000	-3.67998E-001	0.00000E+000	10	...........	0	1467.07
	370	74.2	-3.69829E-001	-6.45253E-003	0.00000E+000	-3.69998E-001	0.00000E+000	10	...........	0	1467.07
	372	74.6	-3.71834E-001	-6.49610E-003	0.00000E+000	-3.71997E-001	0.00000E+000	10	...........	0	1467.07
	374	75	-3.73845E-001	-6.56316E-003	0.00000E+000	-3.73997E-001	0.00000E+000	10	...........	0	1467.07
	376	75.4	-3.75829E-001	-6.60925E-003	0.00000E+000	-3.75997E-001	0.00000E+000	10	...........	0	1467.07
	378	75.8	-3.77830E-001	-6.69056E-003	0.00000E+000	-3.77997E-001	0.00000E+000	10	...........	0	1467.07
	380	76.2	-3.79829E-001	-6.72577E-003	0.00000E+000	-3.79997E-001	0.00000E+000	10	...........	0	1467.07
	382	76.6	-3.81819E-001	-6.78774E-003	0.00000E+000	-3.81996E-001	0.00000E+000	10	...........	0	1467.07
	384	77	-3.83819E-001	-6.83902E-003	0.00000E+000	-3.83996E-001	0.00000E+000	10	...........	0	1467.07
	386	77.4	-3.85847E-001	-6.88092E-003	0.00000E+000	-3.85996E-001	0.00000E+000	10	...........	0	1467.07
	388	77.8	-3.87843E-001	-6.92856E-003	0.00000E+000	-3.87996E-001	0.00000E+000	10	...........	0	1467.07
	390	78.2	-3.89830E-001	-7.90830E-003	0.00000E+000	-3.89996E-001	0.00000E+000	10	...........	0	1467.07
	392	78.6	-3.91828E-001	-8.00021E-003	0.00000E+000	-3.91995E-001	0.00000E+000	10	...........	0	1467.07
	394	79	-3.93845E-001	-7.98192E-003	0.00000E+000	-3.93995E-001	0.00000E+000	10	...........	0	1467.16
	396	79.4	-3.95816E-001	-7.98204E-003	0.00000E+000	-3.95995E-001	0.00000E+000	10	...........	0	1467.16
	398	79.8	-3.97837E-001	-7.99015E-003	0.00000E+000	-3.97995E-001	0.00000E+000	10	...........	0	1467.16
	400	80.2	-3.99839E-001	-7.99077E-003	0.00000E+000	-3.99995E-001	0.00000E+000	10	...........	0	1467.16
	402	80.6	-4.01843E-001	-8.11048E-003	0.00000E+000	-4.01994E-001	0.00000E+000	10	...........	0	1467.16
	404	81	-4.03839E-001	-8.44849E-003	0.00000E+000	-4.03994E-001	0.00000E+000	10	...........	0	1467.07
	406	81.4	-4.05835E-001	-8.46671E-003	0.00000E+000	-4.05994E-001	0.00000E+000	10	...........	0	1467.07
	408	81.8	-4.07825E-001	-8.49288E-003	0.00000E+000	-4.07994E-001	0.00000E+000	10	...........	0	1467.07
	410	82.2	-4.09864E-001	-8.47823E-003	0.00000E+000	-4.09994E-001	0.00000E+000	10	...........	0	1467.16
	412	82.6	-4.11847E-001	-8.46766E-003	0.00000E+000	-4.11993E-001	0.00000E+000	10	...........	0	1467.16
	414	83	-4.13846E-001	-8.46231E-003	0.00000E+000	-4.13993E-001	0.00000E+000	10	...........	0	1467.07
	416	83.4	-4.15856E-001	-8.74289E-003	0.00000E+000	-4.16005E-001	0.00000E+000	10	...........	0	1467.07
	418	83.8	-4.17871E-001	-9.68437E-003	0.00000E+000	-4.18005E-001	0.00000E+000	11	...........	0	1467.07
	420	84.2	-4.19853E-001	-9.71318E-003	0.00000E+000	-4.20005E-001	0.00000E+000	11	...........	0	1467.16
	422	84.6	-4.21860E-001	-9.68357E-003	0.00000E+000	-4.22005E-001	0.00000E+000	11	...........	0	1467.16
	424	85	-4.23869E-001	-9.62441E-003	0.00000E+000	-4.24005E-001	0.00000E+000	11	...........	0	1467.07
	426	85.4	-4.25877E-001	-9.67582E-003	0.00000E+000	-4.26004E-001	0.00000E+000	11	...........	0	1467.07
	428	85.8	-4.27857E-001	-9.58164E-003	0.00000E+000	-4.28004E-001	0.00000E+000	11	...........	0	1467.07
	430	86.2	-4.29877E-001	-9.68965E-003	0.00000E+000	-4.30004E-001	0.00000E+000	11	...........	0	1467.07
	432	86.6	-4.31878E-001	-9.90223E-003	0.00000E+000	-4.32004E-001	0.00000E+000	11	...........	0	1467.07
	434	87	-4.33866E-001	-9.87318E-003	0.00000E+000	-4.34004E-001	0.00000E+000	11	...........	0	1467.07
	436	87.4	-4.35889E-001	-9.86976E-003	0.00000E+000	-4.36003E-001	0.00000E+000	11	...........	0	1467.07
	438	87.8	-4.37893E-001	-1.01673E-002	0.00000E+000	-4.38003E-001	0.00000E+000	11	...........	0	1467.07
	440	88.2	-4.39873E-001	-1.05527E-002	0.00000E+000	-4.40003E-001	0.00000E+000	11	...........	0	1467.07
	442	88.6	-4.41881E-001	-1.05942E-002	0.00000E+000	-4.42003E-001	0.00000E+000	11	...........	0	1467.07
	444	89	-4.43878E-001	-1.05855E-002	0.00000E+000	-4.44003E-001	0.00000E+000	11	...........	0	1467.07
	446	89.4	-4.45875E-001	-1.06879E-002	0.00000E+000	-4.46002E-001	0.00000E+000	11	...........	0	1467.07
	448	89.8	-4.47880E-001	-1.08021E-002	0.00000E+000	-4.48002E-001	0.00000E+000	11	...........	0	1467.07
	450	90.2	-4.49884E-001	-1.08276E-002	0.00000E+000	-4.50002E-001	0.00000E+000	11	...........	0	1467.07
	452	90.6	-4.51890E-001	-1.07126E-002	0.00000E+000	-4.52002E-001	0.00000E+000	11	...........	0	1467.07
	454	91	-4.53874E-001	-1.07893E-002	0.00000E+000	-4.54002E-001	0.00000E+000	11	...........	0	1467.07
	456	91.4	-4.55887E-001	-1.07725E-002	0.00000E+000	-4.56001E-001	0.00000E+000	11	...........	0	1467.07
	458	91.8	-4.57884E-001	-1.10625E-002	0.00000E+000	-4.58001E-001	0.00000E+000	11	...........	0	1467.07
	460	92.2	-4.59871E-001	-1.13340E-002	0.00000E+000	-4.60001E-001	0.00000E+000	11	...........	0	1467.07
	462	92.6	-4.61896E-001	-1.12341E-002	0.00000E+000	-4.62001E-001	0.00000E+000	11	...........	0	1467.07
	464	93	-4.63900E-001	-1.13568E-002	0.00000E+000	-4.64001E-001	0.00000E+000	11	...........	0	1467.07
	466	93.4	-4.65910E-001	-1.15161E-002	0.00000E+000	-4.66000E-001	0.00000E+000	11	...........	0	1467.07
	468	93.8	-4.67890E-001	-1.15540E-002	0.00000E+000	-4.68000E-001	0.00000E+000	11	...........	0	1467.07
	470	94.2	-4.69879E-001	-1.14184E-002	0.00000E+000	-4.70000E-001	0.00000E+000	11	...........	0	1467.07
	472	94.6	-4.71879E-001	-1.13133E-002	0.00000E+000	-4.72000E-001	0.00000E+000	11	...........	0	1467.07
	474	95	-4.73920E-001	-1.28811E-002	0.00000E+000	-4.74000E-001	0.00000E+000	11	...........	0	1467.07
	476	95.4	-4.75907E-001	-1.27533E-002	0.00000E+000	-4.75999E-001	0.00000E+000	11	...........	0	1467.07
	478	95.8	-4.77876E-001	-1.27517E-002	0.00000E+000	-4.77999E-001	0.00000E+000	11	...........	0	1467.07
	480	96.2	-4.79881E-001	-1.26871E-002	0.00000E+000	-4.79999E-001	0.00000E+000	11	...........	0	1467.07
	482	96.6	-4.81891E-001	-1.28153E-002	0.00000E+000	-4.81999E-001	0.00000E+000	11	...........	0	1467.07
	484	97	-4.83879E-001	-1.32395E-002	0.00000E+000	-4.83999E-001	0.00000E+000	11	...........	0	1467.16
	486	97.4	-4.85885E-001	-1.31053E-002	0.00000E+000	-4.85998E-001	0.00000E+000	11	...........	0	1467.16
	488	97.8	-4.87905E-001	-1.30915E-002	0.00000E+000	-4.87998E-001	0.00000E+000	11	...........	0	1467.16
	490	98.2	-4.89925E-001	-1.29018E-002	0.00000E+000	-4.89998E-001	0.00000E+000	11	...........	0	1467.07
	492	98.6	-4.91891E-001	-1.29302E-002	0.00000E+000	-4.91998E-001	0.00000E+000	11	...........	0	1467.07
	494	99	-4.93889E-001	-1.29784E-002	0.00000E+000	-4.93998E-001	0.00000E+000	11	...........	0	1467.07
	496	99.4	-4.95892E-001	-1.28537E-002	0.00000E+000	-4.95997E-001	0.00000E+000	11	...........	0	1467.07
	498	99.8	-4.97883E-001	-1.30200E-002	0.00000E+000	-4.97997E-001	0.00000E+000	11	...........	0	1467.07
	500	100.2	-4.99901E-001	-1.32292E-002	0.00000E+000	-4.99997E-001	0.00000E+000	11	...........	0	1467.16
	502	100.6	-5.01897E-001	-1.36054E-002	0.00000E+000	-5.01997E-001	0.00000E+000	11	...........	0	1467.16
	504	101	-5.03887E-001	-1.34518E-002	0.00000E+000	-5.03997E-001	0.00000E+000	11	...........	0	1467.07
	506	101.4	-5.05893E-001	-1.36125E-002	0.00000E+000	-5.05996E-001	0.00000E+000	11	...........	0	1467.07
	508	101.8	-5.07881E-001	-1.33843E-002	0.00000E+000	-5.07996E-001	0.00000E+000	11	...........	0	1467.07
	510	102.2	-5.09885E-001	-1.32218E-002	0.00000E+000	-5.09996E-001	0.00000E+000	11	...........	0	1467.16
	512	102.6	-5.11890E-001	-1.33321E-002	0.00000E+000	-5.11996E-001	0.00000E+000	11	...........	0	1467.16
	514	103	-5.13897E-001	-1.33264E-002	0.00000E+000	-5.13996E-001	0.00000E+000	11	...........	0	1467.07
	516	103.4	-5.15901E-001	-1.34823E-002	0.00000E+000	-5.15995E-001	0.00000E+000	11	...........	0	1467.07
	518	103.8	-5.17886E-001	-1.33911E-002	0.00000E+000	-5.17995E-001	0.00000E+000	11	...........	0	1467.07
	520	104.2	-5.19893E-001	-1.49308E-002	0.00000E+000	-5.19995E-001	0.00000E+000	11	...........	0	1467.07
	522	104.6	-5.21904E-001	-1.47999E-002	0.00000E+000	-5.21995E-001	0.00000E+000	11	...........	0	1467.07
	524	105	-5.23886E-001	-1.47005E-002	0.00000E+000	-5.23995E-001	0.00000E+000	11	...........	0	1467.07
	526	105.4	-5.25900E-001	-1.47269E-002	0.00000E+000	-5.25994E-001	0.00000E+000	11	...........	0	1467.07
	528	105.8	-5.27900E-001	-1.47662E-002	0.00000E+000	-5.27994E-001	0.00000E+000	11	...........	0	1467.07
	530	106.2	-5.29910E-001	-1.46938E-002	0.00000E+000	-5.29994E-001	0.00000E+000	11	...........	0	1467.07
	532	106.6	-5.31912E-001	-1.46581E-002	0.00000E+000	-5.31994E-001	0.00000E+000	11	...........	0	1467.07
	534	107	-5.33903E-001	-1.48071E-002	0.00000E+000	-5.33993E-001	0.00000E+000	11	...........	0	1467.07
	536	107.4	-5.35884E-001	-1.47949E-002	0.00000E+000	-5.35993E-001	0.00000E+000	11	...........	0	1467.07
	538	107.8	-5.37908E-001	-1.49090E-002	0.00000E+000	-5.37993E-001	0.00000E+000	11	...........	0	1467.07
	540	108.2	-5.39922E-001	-1.51724E-002	0.00000E+000	-5.39993E-001	0.00000E+000	11	...........	0	1467.07
	542	108.6	-5.41907E-001	-1.50745E-002	0.00000E+000	-5.42005E-001	0.00000E+000	11	...........	0	1467.07
	544	109	-5.43916E-001	-1.49463E-002	0.00000E+000	-5.44005E-001	0.00000E+000	11	...........	0	1467.07
	546	109.4	-5.45915E-001	-1.49270E-002	0.00000E+000	-5.46005E-001	0.00000E+000	11	...........	0	1467.07
	548	109.8	-5.47913E-001	-1.49890E-002	0.00000E+000	-5.48005E-001	0.00000E+000	11	...........	0	1467.07
	550	110.2	-5.49917E-001	-1.49246E-002	0.00000E+000	-5.50004E-001	0.00000E+000	11	...........	0	1467.07
	552	110.6	-5.51927E-001	-1.50777E-002	0.00000E+000	-5.52004E-001	0.00000E+000	11	...........	0	1467.07
	554	111	-5.53924E-001	-1.49542E-002	0.00000E+000	-5.54004E-001	0.00000E+000	11	...........	0	1467.07
	556	111.4	-5.55924E-001	-1.50875E-002	0.00000E+000	-5.56004E-001	0.00000E+000	11	...........	0	1467.07
	558	111.8	-5.57926E-001	-1.50317E-002	0.00000E+000	-5.58004E-001	0.00000E+000	11	...........	0	1467.07
	560	112.2	-5.59908E-001	-1.50529E-002	0.00000E+000	-5.60003E-001	0.00000E+000	11	...........	0	1467.16
	562	112.6	-5.61904E-001	-1.49470E-002	0.00000E+000	-5.62003E-001	0.00000E+000	11	...........	0	1467.16
	564	113	-5.63927E-001	-1.49185E-002	0.00000E+000	-5.64003E-001	0.00000E+000	11	...........	0	1467.07
	566	113.4	-5.65935E-001	-1.48066E-002	0.00000E+000	-5.66003E-001	0.00000E+000	11	...........	0	1467.07
	568	113.8	-5.67929E-001	-1.46582E-002	0.00000E+000	-5.68003E-001	0.00000E+000	11	...........	0	1467.07
	570	114.2	-5.69943E-001	-1.48444E-002	0.00000E+000	-5.70002E-001	0.00000E+000	11	...........	0	1467.07
	572	114.6	-5.71929E-001	-1.55420E-002	0.00000E+000	-5.72002E-001	0.00000E+000	11	...........	0	1467.07
	574	115	-5.73923E-001	-1.64788E-002	0.00000E+000	-5.74002E-001	0.00000E+000	11	...........	0	1467.07
	576	115.4	-5.75929E-001	-1.74669E-002	0.00000E+000	-5.76002E-001	0.00000E+000	11	...........	0	1467.07
	578	115.8	-5.77929E-001	-1.72400E-002	0.00000E+000	-5.78001E-001	0.00000E+000	11	...........	0	1467.07
	580	116.2	-5.79934E-001	-1.70127E-002	0.00000E+000	-5.80001E-001	0.00000E+000	11	...........	0	1467.07
	582	116.6	-5.81929E-001	-1.68252E-002	0.00000E+000	-5.82001E-001	0.00000E+000	11	...........	0	1467.07
	584	117	-5.83918E-001	-1.69883E-002	0.00000E+000	-5.84001E-001	0.00000E+000	11	...........	0	1467.07
	586	117.4	-5.85923E-001	-1.71680E-002	0.00000E+000	-5.86001E-001	0.00000E+000	11	...........	0	1467.07
	588	117.8	-5.87915E-001	-1.69368E-002	0.00000E+000	-5.88001E-001	0.00000E+000	11	...........	0	1467.07
	590	118.2	-5.89934E-001	-1.69635E-002	0.00000E+000	-5.90000E-001	0.00000E+000	11	...........	0	1467.07
	592	118.6	-5.91932E-001	-1.70385E-002	0.00000E+000	-5.92000E-001	0.00000E+000	11	...........	0	1467.07
	594	119	-5.93941E-001	-1.69785E-002	0.00000E+000	-5.94000E-001	0.00000E+000	11	...........	0	1467.07
	596	119.4	-5.95929E-001	-1.69021E-002	0.00000E+000	-5.96000E-001	0.00000E+000	11	...........	0	1467.07
	598	119.8	-5.97925E-001	-1.67543E-002	0.00000E+000	-5.97999E-001	0.00000E+000	11	...........	0	1467.07
	600	120.2	-5.99915E-001	-1.68367E-002	0.00000E+000	-5.99999E-001	0.00000E+000	11	...........	0	1467.07