File: input/HER_POWROT_#1_#1.DTA
EXPLAIN
TAG	LSV
TITLE	LABEL	POWROT	Test Identifier
DATE	LABEL	26.6.2024	Date
TIME	LABEL	10:14:39	Time
NOTES	NOTES	1	Notes...

PSTAT	PSTAT	IFC1010-36108	Potentiostat
VINIT	POTEN	-8.00000E-001	F	Initial E (V)
VFINAL	POTEN	0.00000E+000	F	Final E (V)
SCANRATE	QUANT	4.99999E+000	Scan Rate (mV/s)
STEPSIZE	QUANT	1.00000E+000	Step Size (mV)
IMODE	SELECTOR	0	I/E Range Mode
IRANGE	QUANT	3.00000E+001	Max Current (mA)
AREA	QUANT	1.00000E+000	Sample Area (cm^2)
EQDELAY	QUANT	0.00000E+000	Equil. Time (s)
IRCOMP	SELECTOR	0	IRComp
PFCOR	QUANT	5.00000E+001	PF Corr. (ohm)
SAMPLINGMODE	SELECTOR	1	Sampling Mode
EOC	QUANT	0.4457435	Open Circuit (V)
ELECTRODETYPE	SELECTOR	0	Electrode Type
STRIPPING	TOGGLE	F	Used for Stripping
SEQUENCER	TOGGLE	TRUE	Run as Sequence
PSTATMODEL	IQUANT	64	Pstat Model
PSTATSECTION	LABEL	IFC1010-36108	Pstat Section
PSTATSERIALNO	LABEL	36108	Pstat Serial Number
CTRLMODE	IQUANT	1	Control Mode
ELECTROMETER	IQUANT	0	RE=0 or CS=1
IESTAB	IQUANT	2	I/E Stability
CASPEED	IQUANT	4	Control Amp Speed
CONVENTION	IQUANT	1	Current Convention
ICHRANGE	IQUANT	2	Ich Range
ICHRANGEMODE	TOGGLE	F	Ich Auto Range
ICHOFFSETENABLE	TOGGLE	F	Ich Offset Enable
ICHOFFSET	QUANT	0	Ich Offset (V)
ICHFILTER	IQUANT	3	Ich Filter
VCHRANGE	IQUANT	2	Vch Range
VCHRANGEMODE	TOGGLE	F	Vch Auto Range
VCHOFFSETENABLE	TOGGLE	F	Vch Offset Enable
VCHOFFSET	QUANT	0	Vch Offset (V)
VCHFILTER	IQUANT	3	Vch Filter
IERANGELOWERLIMIT	IQUANT	4	I/E Range Lower Limit
IERANGEMODE	TOGGLE	T	I/E AutoRange
IERANGE	IQUANT	11	I/E Range
ACHSELECT	IQUANT	0	Ach Select
ACHRANGE	IQUANT	2	Ach Range
ACHOFFSETENABLE	TOGGLE	F	Ach Offset Enable
ACHOFFSET	QUANT	0	Ach Offset (V)
ACHFILTER	IQUANT	1	Ach Filter
SENSECABLEID	IQUANT	13	Sense Cable ID
PWRCABLEID	IQUANT	13	Power Cable ID
DCCALDATE	LABEL	8/10/2023	DC Calibration Date
ACCALDATE	LABEL	6/3/2023	AC Calibration Date
FRAMEWORKVERSION	LABEL	7.10.3	Framework Version
INSTRUMENTVERSION	LABEL	4.91	Instrument Version
COMMVERSION	LABEL	3.10	Communications Version
CPUPLDVERSION	LABEL	2.22	CPU PLD Version
CTRLPLDVERSION	LABEL	0.00	CTRL PLD Version
PSTATPLDVERSION	LABEL	0.00	PSTAT PLD Version
CURVE	TABLE	801
	Pt	T	Vf	Im	Vu	Sig	Ach	IERange	Over	Cycle	Temp
	#	s	V vs. Ref.	A	V	V	V	#	bits	#	deg C
	0	0.2	-8.00135E-001	-4.92577E-003	0.00000E+000	-8.00005E-001	0.00000E+000	11	...........	0	1469.15
	2	0.6	-7.98145E-001	-4.69115E-003	0.00000E+000	-7.98006E-001	0.00000E+000	10	...........	0	1468.97
	4	1	-7.96118E-001	-4.50403E-003	0.00000E+000	-7.95994E-001	0.00000E+000	10	...........	0	1468.97
	6	1.4	-7.94103E-001	-4.64964E-003	0.00000E+000	-7.93995E-001	0.00000E+000	10	...........	0	1468.97
	8	1.8	-7.92114E-001	-4.39886E-003	0.00000E+000	-7.91995E-001	0.00000E+000	10	...........	0	1469.15
	10	2.2	-7.90100E-001	-4.19371E-003	0.00000E+000	-7.89996E-001	0.00000E+000	10	...........	0	1469.15
	12	2.6	-7.88116E-001	-4.02100E-003	0.00000E+000	-7.87997E-001	0.00000E+000	10	...........	0	1469.15
	14	3	-7.86117E-001	-3.89633E-003	0.00000E+000	-7.85997E-001	0.00000E+000	10	...........	0	1469.15
	16	3.4	-7.84118E-001	-3.93335E-003	0.00000E+000	-7.83998E-001	0.00000E+000	10	...........	0	1469.15
	18	3.8	-7.82131E-001	-3.83005E-003	0.00000E+000	-7.81998E-001	0.00000E+000	10	...........	0	1469.15
	20	4.2	-7.80110E-001	-3.90157E-003	0.00000E+000	-7.79999E-001	0.00000E+000	10	...........	0	1469.15
	22	4.6	-7.78103E-001	-3.78465E-003	0.00000E+000	-7.78000E-001	0.00000E+000	10	...........	0	1469.15
	24	5	-7.76119E-001	-4.03932E-003	0.00000E+000	-7.76000E-001	0.00000E+000	10	...........	0	1469.15
	26	5.4	-7.74114E-001	-3.84572E-003	0.00000E+000	-7.74001E-001	0.00000E+000	10	...........	0	1469.15
	28	5.8	-7.72120E-001	-4.75641E-003	0.00000E+000	-7.72001E-001	0.00000E+000	10	...........	0	1469.15
	30	6.2	-7.70114E-001	-4.43860E-003	0.00000E+000	-7.70002E-001	0.00000E+000	10	...........	0	1469.15
	32	6.6	-7.68095E-001	-4.31619E-003	0.00000E+000	-7.68003E-001	0.00000E+000	10	...........	0	1469.15
	34	7	-7.66108E-001	-4.13456E-003	0.00000E+000	-7.66003E-001	0.00000E+000	10	...........	0	1469.15
	36	7.4	-7.64111E-001	-4.03279E-003	0.00000E+000	-7.64004E-001	0.00000E+000	10	...........	0	1469.15
	38	7.8	-7.62095E-001	-3.89106E-003	0.00000E+000	-7.62004E-001	0.00000E+000	10	...........	0	1469.15
	40	8.2	-7.60125E-001	-3.86116E-003	0.00000E+000	-7.60005E-001	0.00000E+000	10	...........	0	1469.15
	42	8.6	-7.58120E-001	-3.82322E-003	0.00000E+000	-7.58005E-001	0.00000E+000	10	...........	0	1469.15
	44	9	-7.56130E-001	-3.63337E-003	0.00000E+000	-7.56006E-001	0.00000E+000	10	...........	0	1469.15
	46	9.4	-7.54107E-001	-3.51305E-003	0.00000E+000	-7.53994E-001	0.00000E+000	10	...........	0	1469.15
	48	9.8	-7.52098E-001	-3.52269E-003	0.00000E+000	-7.51995E-001	0.00000E+000	10	...........	0	1469.15
	50	10.2	-7.50112E-001	-3.36474E-003	0.00000E+000	-7.49995E-001	0.00000E+000	10	...........	0	1469.15
	52	10.6	-7.48112E-001	-3.33008E-003	0.00000E+000	-7.47996E-001	0.00000E+000	10	...........	0	1469.15
	54	11	-7.46119E-001	-3.26879E-003	0.00000E+000	-7.45997E-001	0.00000E+000	10	...........	0	1469.15
	56	11.4	-7.44120E-001	-3.15489E-003	0.00000E+000	-7.43997E-001	0.00000E+000	10	...........	0	1469.15
	58	11.8	-7.42111E-001	-3.05549E-003	0.00000E+000	-7.41998E-001	0.00000E+000	10	...........	0	1469.15
	60	12.2	-7.40111E-001	-3.03137E-003	0.00000E+000	-7.39998E-001	0.00000E+000	10	...........	0	1469.15
	62	12.6	-7.38108E-001	-2.91750E-003	0.00000E+000	-7.37999E-001	0.00000E+000	10	...........	0	1469.15
	64	13	-7.36107E-001	-2.94616E-003	0.00000E+000	-7.36000E-001	0.00000E+000	10	...........	0	1469.15
	66	13.4	-7.34112E-001	-2.80535E-003	0.00000E+000	-7.34000E-001	0.00000E+000	10	...........	0	1469.15
	68	13.8	-7.32133E-001	-2.69762E-003	0.00000E+000	-7.32001E-001	0.00000E+000	10	...........	0	1469.15
	70	14.2	-7.30099E-001	-2.61820E-003	0.00000E+000	-7.30001E-001	0.00000E+000	10	...........	0	1469.15
	72	14.6	-7.28113E-001	-2.65471E-003	0.00000E+000	-7.28002E-001	0.00000E+000	10	...........	0	1469.15
	74	15	-7.26104E-001	-2.65961E-003	0.00000E+000	-7.26003E-001	0.00000E+000	10	...........	0	1469.15
	76	15.4	-7.24135E-001	-2.54004E-003	0.00000E+000	-7.24003E-001	0.00000E+000	10	...........	0	1469.15
	78	15.8	-7.22119E-001	-2.98060E-003	0.00000E+000	-7.22004E-001	0.00000E+000	10	...........	0	1469.15
	80	16.2	-7.20120E-001	-2.76276E-003	0.00000E+000	-7.20004E-001	0.00000E+000	10	...........	0	1469.15
	82	16.6	-7.18133E-001	-2.70887E-003	0.00000E+000	-7.18005E-001	0.00000E+000	10	...........	0	1469.15
	84	17	-7.16105E-001	-2.60887E-003	0.00000E+000	-7.16006E-001	0.00000E+000	10	...........	0	1469.15
	86	17.4	-7.14100E-001	-2.50234E-003	0.00000E+000	-7.14006E-001	0.00000E+000	10	...........	0	1469.15
	88	17.8	-7.12108E-001	-2.61283E-003	0.00000E+000	-7.11994E-001	0.00000E+000	10	...........	0	1469.15
	90	18.2	-7.10092E-001	-2.49223E-003	0.00000E+000	-7.09995E-001	0.00000E+000	10	...........	0	1469.15
	92	18.6	-7.08114E-001	-2.41218E-003	0.00000E+000	-7.07996E-001	0.00000E+000	10	...........	0	1469.15
	94	19	-7.06106E-001	-2.33053E-003	0.00000E+000	-7.05996E-001	0.00000E+000	10	...........	0	1469.15
	96	19.4	-7.04097E-001	-2.35234E-003	0.00000E+000	-7.03997E-001	0.00000E+000	10	...........	0	1469.15
	98	19.8	-7.02102E-001	-2.24771E-003	0.00000E+000	-7.01997E-001	0.00000E+000	10	...........	0	1469.15
	100	20.2	-7.00113E-001	-2.19481E-003	0.00000E+000	-6.99998E-001	0.00000E+000	10	...........	0	1469.15
	102	20.6	-6.98106E-001	-2.11984E-003	0.00000E+000	-6.97999E-001	0.00000E+000	10	...........	0	1469.15
	104	21	-6.96108E-001	-2.03866E-003	0.00000E+000	-6.95999E-001	0.00000E+000	10	...........	0	1469.15
	106	21.4	-6.94119E-001	-1.97079E-003	0.00000E+000	-6.94000E-001	0.00000E+000	10	...........	0	1469.15
	108	21.8	-6.92125E-001	-1.99439E-003	0.00000E+000	-6.92000E-001	0.00000E+000	10	...........	0	1469.15
	110	22.2	-6.90089E-001	-1.89637E-003	0.00000E+000	-6.90001E-001	0.00000E+000	10	...........	0	1469.15
	112	22.6	-6.88109E-001	-1.94371E-003	0.00000E+000	-6.88002E-001	0.00000E+000	10	...........	0	1469.15
	114	23	-6.86102E-001	-1.84716E-003	0.00000E+000	-6.86002E-001	0.00000E+000	10	...........	0	1469.15
	116	23.4	-6.84115E-001	-1.79095E-003	0.00000E+000	-6.84003E-001	0.00000E+000	10	...........	0	1469.15
	118	23.8	-6.82121E-001	-1.71972E-003	0.00000E+000	-6.82003E-001	0.00000E+000	10	...........	0	1469.15
	120	24.2	-6.80125E-001	-1.69936E-003	0.00000E+000	-6.80004E-001	0.00000E+000	10	...........	0	1469.15
	122	24.6	-6.78110E-001	-1.61581E-003	0.00000E+000	-6.78005E-001	0.00000E+000	10	...........	0	1469.15
	124	25	-6.76119E-001	-1.56813E-003	0.00000E+000	-6.76005E-001	0.00000E+000	10	...........	0	1469.15
	126	25.4	-6.74103E-001	-1.52029E-003	0.00000E+000	-6.74006E-001	0.00000E+000	10	...........	0	1469.15
	128	25.8	-6.72129E-001	-1.48436E-003	0.00000E+000	-6.72006E-001	0.00000E+000	10	...........	0	1469.15
	130	26.2	-6.70113E-001	-1.44408E-003	0.00000E+000	-6.69994E-001	0.00000E+000	10	...........	0	1469.15
	132	26.6	-6.68126E-001	-1.40999E-003	0.00000E+000	-6.67995E-001	0.00000E+000	10	...........	0	1469.15
	134	27	-6.66105E-001	-1.36147E-003	0.00000E+000	-6.65996E-001	0.00000E+000	10	...........	0	1469.15
	136	27.4	-6.64105E-001	-1.53426E-003	0.00000E+000	-6.63996E-001	0.00000E+000	10	...........	0	1469.15
	138	27.8	-6.62101E-001	-1.41830E-003	0.00000E+000	-6.61997E-001	0.00000E+000	10	...........	0	1469.15
	140	28.2	-6.60100E-001	-1.35558E-003	0.00000E+000	-6.59997E-001	0.00000E+000	10	...........	0	1469.15
	142	28.6	-6.58105E-001	-1.31886E-003	0.00000E+000	-6.57998E-001	0.00000E+000	10	...........	0	1469.15
	144	29	-6.56120E-001	-1.28566E-003	0.00000E+000	-6.55999E-001	0.00000E+000	10	...........	0	1469.15
	146	29.4	-6.54117E-001	-1.23195E-003	0.00000E+000	-6.53999E-001	0.00000E+000	10	...........	0	1469.15
	148	29.8	-6.52108E-001	-1.17893E-003	0.00000E+000	-6.52000E-001	0.00000E+000	10	...........	0	1469.15
	150	30.2	-6.50111E-001	-1.13141E-003	0.00000E+000	-6.50000E-001	0.00000E+000	10	...........	0	1469.15
	152	30.6	-6.48118E-001	-1.09706E-003	0.00000E+000	-6.48001E-001	0.00000E+000	10	...........	0	1469.15
	154	31	-6.46114E-001	-1.06376E-003	0.00000E+000	-6.46002E-001	0.00000E+000	10	...........	0	1469.15
	156	31.4	-6.44124E-001	-1.02370E-003	0.00000E+000	-6.44002E-001	0.00000E+000	10	...........	0	1469.15
	158	31.8	-6.42117E-001	-1.05163E-003	0.00000E+000	-6.42003E-001	0.00000E+000	10	...........	0	1469.15
	160	32.2	-6.40112E-001	-9.88639E-004	0.00000E+000	-6.40003E-001	0.00000E+000	10	...........	0	1469.15
	162	32.6	-6.38112E-001	-9.40406E-004	0.00000E+000	-6.38004E-001	0.00000E+000	10	...........	0	1469.15
	164	33	-6.36107E-001	-9.48559E-004	0.00000E+000	-6.36005E-001	0.00000E+000	10	...........	0	1469.15
	166	33.4	-6.34102E-001	-9.07681E-004	0.00000E+000	-6.34005E-001	0.00000E+000	10	...........	0	1469.15
	168	33.8	-6.32122E-001	-8.68486E-004	0.00000E+000	-6.32006E-001	0.00000E+000	10	...........	0	1469.15
	170	34.2	-6.30116E-001	-8.30594E-004	0.00000E+000	-6.30006E-001	0.00000E+000	10	...........	0	1469.15
	172	34.6	-6.28115E-001	-7.99270E-004	0.00000E+000	-6.27994E-001	0.00000E+000	10	...........	0	1469.15
	174	35	-6.26100E-001	-7.92261E-004	0.00000E+000	-6.25995E-001	0.00000E+000	9	...........	0	1469.15
	176	35.4	-6.24092E-001	-7.49051E-004	0.00000E+000	-6.23996E-001	0.00000E+000	9	...........	0	1469.15
	178	35.8	-6.22090E-001	-7.40124E-004	0.00000E+000	-6.21996E-001	0.00000E+000	9	...........	0	1469.15
	180	36.2	-6.20109E-001	-7.01843E-004	0.00000E+000	-6.19997E-001	0.00000E+000	9	...........	0	1469.15
	182	36.6	-6.18101E-001	-6.68720E-004	0.00000E+000	-6.17998E-001	0.00000E+000	9	...........	0	1469.24
	184	37	-6.16108E-001	-6.39248E-004	0.00000E+000	-6.15998E-001	0.00000E+000	9	...........	0	1469.24
	186	37.4	-6.14100E-001	-6.13592E-004	0.00000E+000	-6.13999E-001	0.00000E+000	9	...........	0	1469.24
	188	37.8	-6.12124E-001	-6.19374E-004	0.00000E+000	-6.11999E-001	0.00000E+000	9	...........	0	1469.15
	190	38.2	-6.10107E-001	-6.23037E-004	0.00000E+000	-6.10000E-001	0.00000E+000	9	...........	0	1469.15
	192	38.6	-6.08118E-001	-5.97792E-004	0.00000E+000	-6.08001E-001	0.00000E+000	9	...........	0	1469.15
	194	39	-6.06123E-001	-5.73691E-004	0.00000E+000	-6.06001E-001	0.00000E+000	9	...........	0	1469.15
	196	39.4	-6.04128E-001	-5.47008E-004	0.00000E+000	-6.04002E-001	0.00000E+000	9	...........	0	1469.15
	198	39.8	-6.02133E-001	-5.27134E-004	0.00000E+000	-6.02002E-001	0.00000E+000	9	...........	0	1469.15
	200	40.2	-6.00123E-001	-5.03584E-004	0.00000E+000	-6.00003E-001	0.00000E+000	9	...........	0	1469.15
	202	40.6	-5.98123E-001	-4.78803E-004	0.00000E+000	-5.98004E-001	0.00000E+000	9	...........	0	1469.15
	204	41	-5.96139E-001	-4.57236E-004	0.00000E+000	-5.96004E-001	0.00000E+000	9	...........	0	1469.15
	206	41.4	-5.94128E-001	-4.36978E-004	0.00000E+000	-5.94005E-001	0.00000E+000	9	...........	0	1469.15
	208	41.8	-5.92136E-001	-4.21460E-004	0.00000E+000	-5.92005E-001	0.00000E+000	9	...........	0	1469.15
	210	42.2	-5.90140E-001	-3.98389E-004	0.00000E+000	-5.90006E-001	0.00000E+000	9	...........	0	1469.15
	212	42.6	-5.88128E-001	-3.81908E-004	0.00000E+000	-5.88006E-001	0.00000E+000	9	...........	0	1469.15
	214	43	-5.86113E-001	-3.66262E-004	0.00000E+000	-5.85995E-001	0.00000E+000	9	...........	0	1469.15
	216	43.4	-5.84102E-001	-3.49707E-004	0.00000E+000	-5.83995E-001	0.00000E+000	9	...........	0	1469.15
	218	43.8	-5.82112E-001	-3.41560E-004	0.00000E+000	-5.81996E-001	0.00000E+000	9	...........	0	1469.15
	220	44.2	-5.80120E-001	-3.26066E-004	0.00000E+000	-5.79996E-001	0.00000E+000	9	...........	0	1469.15
	222	44.6	-5.78120E-001	-3.08857E-004	0.00000E+000	-5.77997E-001	0.00000E+000	9	...........	0	1469.15
	224	45	-5.76108E-001	-2.94864E-004	0.00000E+000	-5.75998E-001	0.00000E+000	9	...........	0	1469.15
	226	45.4	-5.74126E-001	-2.88341E-004	0.00000E+000	-5.73998E-001	0.00000E+000	9	...........	0	1469.15
	228	45.8	-5.72135E-001	-2.71251E-004	0.00000E+000	-5.71999E-001	0.00000E+000	9	...........	0	1469.15
	230	46.2	-5.70125E-001	-2.58352E-004	0.00000E+000	-5.69999E-001	0.00000E+000	9	...........	0	1469.15
	232	46.6	-5.68125E-001	-2.44193E-004	0.00000E+000	-5.68000E-001	0.00000E+000	9	...........	0	1469.15
	234	47	-5.66138E-001	-2.31883E-004	0.00000E+000	-5.66001E-001	0.00000E+000	9	...........	0	1469.15
	236	47.4	-5.64141E-001	-2.22946E-004	0.00000E+000	-5.64001E-001	0.00000E+000	9	...........	0	1469.15
	238	47.8	-5.62118E-001	-2.10351E-004	0.00000E+000	-5.62002E-001	0.00000E+000	9	...........	0	1469.15
	240	48.2	-5.60115E-001	-1.99869E-004	0.00000E+000	-5.60002E-001	0.00000E+000	9	...........	0	1469.15
	242	48.6	-5.58132E-001	-1.89877E-004	0.00000E+000	-5.58003E-001	0.00000E+000	9	...........	0	1469.15
	244	49	-5.56128E-001	-1.80222E-004	0.00000E+000	-5.56004E-001	0.00000E+000	9	...........	0	1469.15
	246	49.4	-5.54130E-001	-1.70848E-004	0.00000E+000	-5.54004E-001	0.00000E+000	9	...........	0	1469.15
	248	49.8	-5.52136E-001	-1.63454E-004	0.00000E+000	-5.52005E-001	0.00000E+000	9	...........	0	1469.15
	250	50.2	-5.50129E-001	-1.54358E-004	0.00000E+000	-5.50005E-001	0.00000E+000	9	...........	0	1469.15
	252	50.6	-5.48121E-001	-1.45670E-004	0.00000E+000	-5.48006E-001	0.00000E+000	9	...........	0	1469.15
	254	51	-5.46140E-001	-1.38728E-004	0.00000E+000	-5.46007E-001	0.00000E+000	9	...........	0	1469.15
	256	51.4	-5.44125E-001	-1.31186E-004	0.00000E+000	-5.43995E-001	0.00000E+000	9	...........	0	1469.15
	258	51.8	-5.42123E-001	-1.24572E-004	0.00000E+000	-5.41995E-001	0.00000E+000	9	...........	0	1469.15
	260	52.2	-5.40118E-001	-1.18181E-004	0.00000E+000	-5.39996E-001	0.00000E+000	9	...........	0	1469.15
	262	52.6	-5.38143E-001	-1.14054E-004	0.00000E+000	-5.37997E-001	0.00000E+000	9	...........	0	1469.15
	264	53	-5.36114E-001	-1.08268E-004	0.00000E+000	-5.35997E-001	0.00000E+000	9	...........	0	1469.15
	266	53.4	-5.34100E-001	-1.02956E-004	0.00000E+000	-5.33998E-001	0.00000E+000	9	...........	0	1469.15
	268	53.8	-5.32118E-001	-9.98331E-005	0.00000E+000	-5.31998E-001	0.00000E+000	9	...........	0	1469.15
	270	54.2	-5.30124E-001	-9.36230E-005	0.00000E+000	-5.29999E-001	0.00000E+000	9	...........	0	1469.15
	272	54.6	-5.28128E-001	-8.82982E-005	0.00000E+000	-5.28000E-001	0.00000E+000	9	...........	0	1469.15
	274	55	-5.26134E-001	-8.35371E-005	0.00000E+000	-5.26000E-001	0.00000E+000	9	...........	0	1469.15
	276	55.4	-5.24111E-001	-7.94129E-005	0.00000E+000	-5.24001E-001	0.00000E+000	9	...........	0	1469.15
	278	55.8	-5.22109E-001	-7.51974E-005	0.00000E+000	-5.22001E-001	0.00000E+000	8	...........	0	1469.15
	280	56.2	-5.20100E-001	-7.11773E-005	0.00000E+000	-5.20002E-001	0.00000E+000	8	...........	0	1469.15
	282	56.6	-5.18117E-001	-6.75884E-005	0.00000E+000	-5.18003E-001	0.00000E+000	8	...........	0	1469.24
	284	57	-5.16130E-001	-6.43385E-005	0.00000E+000	-5.16003E-001	0.00000E+000	8	...........	0	1469.24
	286	57.4	-5.14136E-001	-6.11921E-005	0.00000E+000	-5.14004E-001	0.00000E+000	8	...........	0	1469.24
	288	57.8	-5.12107E-001	-5.80408E-005	0.00000E+000	-5.12004E-001	0.00000E+000	8	...........	0	1469.24
	290	58.2	-5.10113E-001	-5.57042E-005	0.00000E+000	-5.10005E-001	0.00000E+000	8	...........	0	1469.24
	292	58.6	-5.08119E-001	-5.32704E-005	0.00000E+000	-5.08005E-001	0.00000E+000	8	...........	0	1469.24
	294	59	-5.06121E-001	-5.10041E-005	0.00000E+000	-5.06006E-001	0.00000E+000	8	...........	0	1469.24
	296	59.4	-5.04115E-001	-4.87702E-005	0.00000E+000	-5.04007E-001	0.00000E+000	8	...........	0	1469.24
	298	59.8	-5.02116E-001	-4.71286E-005	0.00000E+000	-5.01995E-001	0.00000E+000	8	...........	0	1469.24
	300	60.2	-5.00122E-001	-4.50304E-005	0.00000E+000	-4.99995E-001	0.00000E+000	8	...........	0	1469.24
	302	60.6	-4.98104E-001	-4.48597E-005	0.00000E+000	-4.97996E-001	0.00000E+000	8	...........	0	1469.15
	304	61	-4.96100E-001	-4.26014E-005	0.00000E+000	-4.95997E-001	0.00000E+000	8	...........	0	1469.15
	306	61.4	-4.94114E-001	-4.06713E-005	0.00000E+000	-4.93997E-001	0.00000E+000	8	...........	0	1469.15
	308	61.8	-4.92120E-001	-3.90746E-005	0.00000E+000	-4.91998E-001	0.00000E+000	8	...........	0	1469.15
	310	62.2	-4.90126E-001	-3.75694E-005	0.00000E+000	-4.89998E-001	0.00000E+000	8	...........	0	1469.15
	312	62.6	-4.88126E-001	-3.62601E-005	0.00000E+000	-4.87999E-001	0.00000E+000	8	...........	0	1469.15
	314	63	-4.86113E-001	-3.46722E-005	0.00000E+000	-4.86000E-001	0.00000E+000	8	...........	0	1469.15
	316	63.4	-4.84120E-001	-3.34095E-005	0.00000E+000	-4.84000E-001	0.00000E+000	8	...........	0	1469.15
	318	63.8	-4.82109E-001	-3.19026E-005	0.00000E+000	-4.82001E-001	0.00000E+000	8	...........	0	1469.15
	320	64.2	-4.80109E-001	-3.09729E-005	0.00000E+000	-4.80001E-001	0.00000E+000	8	...........	0	1469.15
	322	64.6	-4.78111E-001	-2.97277E-005	0.00000E+000	-4.78002E-001	0.00000E+000	8	...........	0	1469.15
	324	65	-4.76120E-001	-2.88236E-005	0.00000E+000	-4.76003E-001	0.00000E+000	8	...........	0	1469.15
	326	65.4	-4.74133E-001	-4.31343E-005	0.00000E+000	-4.74003E-001	0.00000E+000	8	...........	0	1469.15
	328	65.8	-4.72104E-001	-8.27293E-005	0.00000E+000	-4.72004E-001	0.00000E+000	8	....ih..i..	0	1469.15
	330	66.2	-4.70110E-001	-3.14754E-005	0.00000E+000	-4.70004E-001	0.00000E+000	8	...........	0	1469.15
	332	66.6	-4.68137E-001	-2.87870E-005	0.00000E+000	-4.68005E-001	0.00000E+000	8	...........	0	1469.15
	334	67	-4.66134E-001	-2.71715E-005	0.00000E+000	-4.66006E-001	0.00000E+000	8	...........	0	1469.15
	336	67.4	-4.64133E-001	-2.58459E-005	0.00000E+000	-4.64006E-001	0.00000E+000	8	...........	0	1469.15
	338	67.8	-4.62146E-001	-2.52451E-005	0.00000E+000	-4.62007E-001	0.00000E+000	8	...........	0	1469.15
	340	68.2	-4.60125E-001	-2.40895E-005	0.00000E+000	-4.59995E-001	0.00000E+000	8	...........	0	1469.15
	342	68.6	-4.58105E-001	-2.29843E-005	0.00000E+000	-4.57996E-001	0.00000E+000	8	...........	0	1469.15
	344	69	-4.56098E-001	-2.20315E-005	0.00000E+000	-4.55996E-001	0.00000E+000	8	...........	0	1469.15
	346	69.4	-4.54113E-001	-2.11548E-005	0.00000E+000	-4.53997E-001	0.00000E+000	8	...........	0	1469.15
	348	69.8	-4.52114E-001	-2.03044E-005	0.00000E+000	-4.51997E-001	0.00000E+000	8	...........	0	1469.15
	350	70.2	-4.50114E-001	-1.95247E-005	0.00000E+000	-4.49998E-001	0.00000E+000	8	...........	0	1469.15
	352	70.6	-4.48092E-001	-1.87653E-005	0.00000E+000	-4.47998E-001	0.00000E+000	8	...........	0	1469.15
	354	71	-4.46110E-001	-1.80790E-005	0.00000E+000	-4.45999E-001	0.00000E+000	8	...........	0	1469.15
	356	71.4	-4.44107E-001	-1.74347E-005	0.00000E+000	-4.44000E-001	0.00000E+000	8	...........	0	1469.15
	358	71.8	-4.42127E-001	-1.68055E-005	0.00000E+000	-4.42000E-001	0.00000E+000	8	...........	0	1469.15
	360	72.2	-4.40122E-001	-1.62300E-005	0.00000E+000	-4.40001E-001	0.00000E+000	8	...........	0	1469.15
	362	72.6	-4.38130E-001	-1.56611E-005	0.00000E+000	-4.38002E-001	0.00000E+000	8	...........	0	1469.15
	364	73	-4.36135E-001	-1.51336E-005	0.00000E+000	-4.36002E-001	0.00000E+000	8	...........	0	1469.15
	366	73.4	-4.34129E-001	-1.46457E-005	0.00000E+000	-4.34003E-001	0.00000E+000	8	...........	0	1469.15
	368	73.8	-4.32094E-001	-1.41819E-005	0.00000E+000	-4.32003E-001	0.00000E+000	8	...........	0	1469.15
	370	74.2	-4.30115E-001	-1.37265E-005	0.00000E+000	-4.30004E-001	0.00000E+000	8	...........	0	1469.15
	372	74.6	-4.28118E-001	-1.32753E-005	0.00000E+000	-4.28005E-001	0.00000E+000	8	...........	0	1469.15
	374	75	-4.26125E-001	-1.29595E-005	0.00000E+000	-4.26005E-001	0.00000E+000	8	...........	0	1469.15
	376	75.4	-4.24122E-001	-1.25114E-005	0.00000E+000	-4.24006E-001	0.00000E+000	8	...........	0	1469.15
	378	75.8	-4.22118E-001	-1.21533E-005	0.00000E+000	-4.22006E-001	0.00000E+000	8	...........	0	1469.15
	380	76.2	-4.20121E-001	-1.18228E-005	0.00000E+000	-4.20007E-001	0.00000E+000	8	...........	0	1469.15
	382	76.6	-4.18118E-001	-1.15198E-005	0.00000E+000	-4.17995E-001	0.00000E+000	8	...........	0	1469.15
	384	77	-4.16106E-001	-1.12148E-005	0.00000E+000	-4.15996E-001	0.00000E+000	8	...........	0	1469.15
	386	77.4	-4.14116E-001	-1.09261E-005	0.00000E+000	-4.13996E-001	0.00000E+000	8	...........	0	1469.15
	388	77.8	-4.12110E-001	-1.06482E-005	0.00000E+000	-4.11997E-001	0.00000E+000	8	...........	0	1469.15
	390	78.2	-4.10118E-001	-1.03544E-005	0.00000E+000	-4.09997E-001	0.00000E+000	8	...........	0	1469.15
	392	78.6	-4.08110E-001	-1.01250E-005	0.00000E+000	-4.07998E-001	0.00000E+000	8	...........	0	1469.15
	394	79	-4.06128E-001	-9.94213E-006	0.00000E+000	-4.05999E-001	0.00000E+000	8	...........	0	1469.15
	396	79.4	-4.04143E-001	-9.72759E-006	0.00000E+000	-4.03999E-001	0.00000E+000	8	...........	0	1469.15
	398	79.8	-4.02143E-001	-9.49982E-006	0.00000E+000	-4.02000E-001	0.00000E+000	8	...........	0	1469.15
	400	80.2	-4.00142E-001	-9.30034E-006	0.00000E+000	-4.00000E-001	0.00000E+000	8	...........	0	1469.15
	402	80.6	-3.98140E-001	-9.13710E-006	0.00000E+000	-3.98001E-001	0.00000E+000	8	...........	0	1469.15
	404	81	-3.96126E-001	-8.98231E-006	0.00000E+000	-3.96002E-001	0.00000E+000	8	...........	0	1469.15
	406	81.4	-3.94134E-001	-8.83484E-006	0.00000E+000	-3.94002E-001	0.00000E+000	8	...........	0	1469.15
	408	81.8	-3.92138E-001	-8.72580E-006	0.00000E+000	-3.92003E-001	0.00000E+000	8	...........	0	1469.24
	410	82.2	-3.90144E-001	-8.57633E-006	0.00000E+000	-3.90003E-001	0.00000E+000	8	...........	0	1469.24
	412	82.6	-3.88144E-001	-8.44657E-006	0.00000E+000	-3.88004E-001	0.00000E+000	8	...........	0	1469.15
	414	83	-3.86163E-001	-8.33021E-006	0.00000E+000	-3.86005E-001	0.00000E+000	8	...........	0	1469.15
	416	83.4	-3.84145E-001	-8.23140E-006	0.00000E+000	-3.84005E-001	0.00000E+000	8	...........	0	1469.15
	418	83.8	-3.82136E-001	-8.11930E-006	0.00000E+000	-3.82006E-001	0.00000E+000	8	...........	0	1469.24
	420	84.2	-3.80134E-001	-8.08519E-006	0.00000E+000	-3.80006E-001	0.00000E+000	8	...........	0	1469.24
	422	84.6	-3.78140E-001	-8.01476E-006	0.00000E+000	-3.78007E-001	0.00000E+000	7	...........	0	1469.15
	424	85	-3.76114E-001	-7.91940E-006	0.00000E+000	-3.75995E-001	0.00000E+000	7	...........	0	1469.15
	426	85.4	-3.74123E-001	-7.83950E-006	0.00000E+000	-3.73996E-001	0.00000E+000	7	...........	0	1469.15
	428	85.8	-3.72134E-001	-7.75558E-006	0.00000E+000	-3.71996E-001	0.00000E+000	7	...........	0	1469.24
	430	86.2	-3.70135E-001	-7.69377E-006	0.00000E+000	-3.69997E-001	0.00000E+000	7	...........	0	1469.24
	432	86.6	-3.68130E-001	-7.61740E-006	0.00000E+000	-3.67997E-001	0.00000E+000	7	...........	0	1469.24
	434	87	-3.66131E-001	-7.54402E-006	0.00000E+000	-3.65998E-001	0.00000E+000	7	...........	0	1469.24
	436	87.4	-3.64135E-001	-7.47776E-006	0.00000E+000	-3.63999E-001	0.00000E+000	7	...........	0	1469.24
	438	87.8	-3.62150E-001	-7.41709E-006	0.00000E+000	-3.61999E-001	0.00000E+000	7	...........	0	1469.24
	440	88.2	-3.60150E-001	-7.35926E-006	0.00000E+000	-3.60000E-001	0.00000E+000	7	...........	0	1469.24
	442	88.6	-3.58123E-001	-7.30103E-006	0.00000E+000	-3.58000E-001	0.00000E+000	7	...........	0	1469.24
	444	89	-3.56126E-001	-7.24557E-006	0.00000E+000	-3.56001E-001	0.00000E+000	7	...........	0	1469.24
	446	89.4	-3.54118E-001	-7.18696E-006	0.00000E+000	-3.54002E-001	0.00000E+000	7	...........	0	1469.24
	448	89.8	-3.52123E-001	-7.12844E-006	0.00000E+000	-3.52002E-001	0.00000E+000	7	...........	0	1469.24
	450	90.2	-3.50129E-001	-7.08489E-006	0.00000E+000	-3.50003E-001	0.00000E+000	7	...........	0	1469.24
	452	90.6	-3.48143E-001	-7.04758E-006	0.00000E+000	-3.48004E-001	0.00000E+000	7	...........	0	1469.24
	454	91	-3.46146E-001	-6.99954E-006	0.00000E+000	-3.46004E-001	0.00000E+000	7	...........	0	1469.24
	456	91.4	-3.44117E-001	-6.99523E-006	0.00000E+000	-3.44005E-001	0.00000E+000	7	...........	0	1469.24
	458	91.8	-3.42125E-001	-6.93219E-006	0.00000E+000	-3.42005E-001	0.00000E+000	7	...........	0	1469.24
	460	92.2	-3.40122E-001	-6.89051E-006	0.00000E+000	-3.40006E-001	0.00000E+000	7	...........	0	1469.24
	462	92.6	-3.38129E-001	-6.83886E-006	0.00000E+000	-3.38006E-001	0.00000E+000	7	...........	0	1469.24
	464	93	-3.36130E-001	-6.79864E-006	0.00000E+000	-3.36007E-001	0.00000E+000	7	...........	0	1469.24
	466	93.4	-3.34137E-001	-6.77229E-006	0.00000E+000	-3.33995E-001	0.00000E+000	7	...........	0	1469.24
	468	93.8	-3.32127E-001	-6.72744E-006	0.00000E+000	-3.31996E-001	0.00000E+000	7	...........	0	1469.24
	470	94.2	-3.30128E-001	-6.69496E-006	0.00000E+000	-3.29996E-001	0.00000E+000	7	...........	0	1469.24
	472	94.6	-3.28119E-001	-6.65961E-006	0.00000E+000	-3.27997E-001	0.00000E+000	7	...........	0	1469.24
	474	95	-3.26117E-001	-6.61616E-006	0.00000E+000	-3.25998E-001	0.00000E+000	7	...........	0	1469.24
	476	95.4	-3.24130E-001	-6.57907E-006	0.00000E+000	-3.23998E-001	0.00000E+000	7	...........	0	1469.24
	478	95.8	-3.22125E-001	-6.54489E-006	0.00000E+000	-3.21999E-001	0.00000E+000	7	...........	0	1469.24
	480	96.2	-3.20106E-001	-6.51526E-006	0.00000E+000	-3.19999E-001	0.00000E+000	7	...........	0	1469.24
	482	96.6	-3.18108E-001	-6.48157E-006	0.00000E+000	-3.18000E-001	0.00000E+000	7	...........	0	1469.15
	484	97	-3.16119E-001	-6.44720E-006	0.00000E+000	-3.16001E-001	0.00000E+000	7	...........	0	1469.15
	486	97.4	-3.14134E-001	-6.41124E-006	0.00000E+000	-3.14001E-001	0.00000E+000	7	...........	0	1469.15
	488	97.8	-3.12119E-001	-6.38928E-006	0.00000E+000	-3.12002E-001	0.00000E+000	7	...........	0	1469.24
	490	98.2	-3.10131E-001	-6.34537E-006	0.00000E+000	-3.10002E-001	0.00000E+000	7	...........	0	1469.24
	492	98.6	-3.08130E-001	-6.31063E-006	0.00000E+000	-3.08003E-001	0.00000E+000	7	...........	0	1469.24
	494	99	-3.06110E-001	-6.27781E-006	0.00000E+000	-3.06004E-001	0.00000E+000	7	...........	0	1469.24
	496	99.4	-3.04111E-001	-6.24433E-006	0.00000E+000	-3.04004E-001	0.00000E+000	7	...........	0	1469.24
	498	99.8	-3.02120E-001	-6.20785E-006	0.00000E+000	-3.02005E-001	0.00000E+000	7	...........	0	1469.24
	500	100.2	-3.00119E-001	-6.18347E-006	0.00000E+000	-3.00005E-001	0.00000E+000	7	...........	0	1469.24
	502	100.6	-2.98130E-001	-6.14602E-006	0.00000E+000	-2.98006E-001	0.00000E+000	7	...........	0	1469.24
	504	101	-2.96135E-001	-6.12071E-006	0.00000E+000	-2.96007E-001	0.00000E+000	7	...........	0	1469.24
	506	101.4	-2.94108E-001	-6.09046E-006	0.00000E+000	-2.93995E-001	0.00000E+000	7	...........	0	1469.24
	508	101.8	-2.92112E-001	-6.06532E-006	0.00000E+000	-2.91995E-001	0.00000E+000	7	...........	0	1469.24
	510	102.2	-2.90119E-001	-6.03120E-006	0.00000E+000	-2.89996E-001	0.00000E+000	7	...........	0	1469.24
	512	102.6	-2.88106E-001	-6.01054E-006	0.00000E+000	-2.87997E-001	0.00000E+000	7	...........	0	1469.24
	514	103	-2.86126E-001	-5.99310E-006	0.00000E+000	-2.85997E-001	0.00000E+000	7	...........	0	1469.24
	516	103.4	-2.84131E-001	-5.95833E-006	0.00000E+000	-2.83998E-001	0.00000E+000	7	...........	0	1469.24
	518	103.8	-2.82139E-001	-5.92166E-006	0.00000E+000	-2.81998E-001	0.00000E+000	7	...........	0	1469.24
	520	104.2	-2.80099E-001	-5.89704E-006	0.00000E+000	-2.79999E-001	0.00000E+000	7	...........	0	1469.24
	522	104.6	-2.78096E-001	-5.86338E-006	0.00000E+000	-2.78000E-001	0.00000E+000	7	...........	0	1469.24
	524	105	-2.76123E-001	-5.84491E-006	0.00000E+000	-2.76000E-001	0.00000E+000	7	...........	0	1469.24
	526	105.4	-2.74126E-001	-5.82304E-006	0.00000E+000	-2.74001E-001	0.00000E+000	7	...........	0	1469.24
	528	105.8	-2.72119E-001	-5.77952E-006	0.00000E+000	-2.72001E-001	0.00000E+000	7	...........	0	1469.15
	530	106.2	-2.70122E-001	-5.74257E-006	0.00000E+000	-2.70002E-001	0.00000E+000	7	...........	0	1469.15
	532	106.6	-2.68112E-001	-5.72375E-006	0.00000E+000	-2.68003E-001	0.00000E+000	7	...........	0	1469.15
	534	107	-2.66125E-001	-5.68898E-006	0.00000E+000	-2.66003E-001	0.00000E+000	7	...........	0	1469.15
	536	107.4	-2.64125E-001	-5.65561E-006	0.00000E+000	-2.64004E-001	0.00000E+000	7	...........	0	1469.15
	538	107.8	-2.62115E-001	-5.61745E-006	0.00000E+000	-2.62004E-001	0.00000E+000	7	...........	0	1469.15
	540	108.2	-2.60140E-001	-5.58619E-006	0.00000E+000	-2.60005E-001	0.00000E+000	7	...........	0	1469.15
	542	108.6	-2.58142E-001	-5.54622E-006	0.00000E+000	-2.58005E-001	0.00000E+000	7	...........	0	1469.24
	544	109	-2.56130E-001	-5.50600E-006	0.00000E+000	-2.56006E-001	0.00000E+000	7	...........	0	1469.24
	546	109.4	-2.54100E-001	-5.49795E-006	0.00000E+000	-2.54007E-001	0.00000E+000	7	...........	0	1469.24
	548	109.8	-2.52103E-001	-5.46825E-006	0.00000E+000	-2.51995E-001	0.00000E+000	7	...........	0	1469.24
	550	110.2	-2.50109E-001	-5.43957E-006	0.00000E+000	-2.49995E-001	0.00000E+000	7	...........	0	1469.24
	552	110.6	-2.48107E-001	-5.40746E-006	0.00000E+000	-2.47996E-001	0.00000E+000	7	...........	0	1469.24
	554	111	-2.46109E-001	-5.36865E-006	0.00000E+000	-2.45997E-001	0.00000E+000	7	...........	0	1469.24
	556	111.4	-2.44125E-001	-5.33372E-006	0.00000E+000	-2.43997E-001	0.00000E+000	7	...........	0	1469.24
	558	111.8	-2.42106E-001	-5.30679E-006	0.00000E+000	-2.41998E-001	0.00000E+000	7	...........	0	1469.24
	560	112.2	-2.40108E-001	-5.27546E-006	0.00000E+000	-2.39998E-001	0.00000E+000	7	...........	0	1469.24
	562	112.6	-2.38118E-001	-5.24303E-006	0.00000E+000	-2.37999E-001	0.00000E+000	7	...........	0	1469.15
	564	113	-2.36111E-001	-5.21381E-006	0.00000E+000	-2.36000E-001	0.00000E+000	7	...........	0	1469.15
	566	113.4	-2.34119E-001	-5.18067E-006	0.00000E+000	-2.34000E-001	0.00000E+000	7	...........	0	1469.15
	568	113.8	-2.32120E-001	-5.14301E-006	0.00000E+000	-2.32001E-001	0.00000E+000	7	...........	0	1469.24
	570	114.2	-2.30120E-001	-5.11038E-006	0.00000E+000	-2.30001E-001	0.00000E+000	7	...........	0	1469.24
	572	114.6	-2.28109E-001	-5.10563E-006	0.00000E+000	-2.28002E-001	0.00000E+000	7	...........	0	1469.15
	574	115	-2.26112E-001	-5.06871E-006	0.00000E+000	-2.26003E-001	0.00000E+000	7	...........	0	1469.15
	576	115.4	-2.24101E-001	-5.04287E-006	0.00000E+000	-2.24003E-001	0.00000E+000	7	...........	0	1469.15
	578	115.8	-2.22110E-001	-5.03963E-006	0.00000E+000	-2.22004E-001	0.00000E+000	7	...........	0	1469.24
	580	116.2	-2.20124E-001	-5.00582E-006	0.00000E+000	-2.20004E-001	0.00000E+000	7	...........	0	1469.24
	582	116.6	-2.18135E-001	-4.96673E-006	0.00000E+000	-2.18005E-001	0.00000E+000	7	...........	0	1469.15
	584	117	-2.16098E-001	-4.92487E-006	0.00000E+000	-2.16006E-001	0.00000E+000	7	...........	0	1469.15
	586	117.4	-2.14110E-001	-4.89003E-006	0.00000E+000	-2.14006E-001	0.00000E+000	7	...........	0	1469.15
	588	117.8	-2.12122E-001	-4.85125E-006	0.00000E+000	-2.12007E-001	0.00000E+000	7	...........	0	1469.15
	590	118.2	-2.10115E-001	-4.82211E-006	0.00000E+000	-2.09995E-001	0.00000E+000	7	...........	0	1469.15
	592	118.6	-2.08116E-001	-4.81910E-006	0.00000E+000	-2.07996E-001	0.00000E+000	7	...........	0	1469.15
	594	119	-2.06122E-001	-4.77852E-006	0.00000E+000	-2.05996E-001	0.00000E+000	7	...........	0	1469.15
	596	119.4	-2.04110E-001	-4.74347E-006	0.00000E+000	-2.03997E-001	0.00000E+000	7	...........	0	1469.15
	598	119.8	-2.02110E-001	-4.70645E-006	0.00000E+000	-2.01997E-001	0.00000E+000	7	...........	0	1469.15
	600	120.2	-2.00109E-001	-4.67474E-006	0.00000E+000	-1.99998E-001	0.00000E+000	7	...........	0	1469.15
	602	120.6	-1.98122E-001	-4.64351E-006	0.00000E+000	-1.97999E-001	0.00000E+000	7	...........	0	1469.24
	604	121	-1.96132E-001	-4.60868E-006	0.00000E+000	-1.95999E-001	0.00000E+000	7	...........	0	1469.24
	606	121.4	-1.94134E-001	-4.57205E-006	0.00000E+000	-1.94000E-001	0.00000E+000	7	...........	0	1469.24
	608	121.8	-1.92133E-001	-4.54733E-006	0.00000E+000	-1.92000E-001	0.00000E+000	7	...........	0	1469.15
	610	122.2	-1.90120E-001	-4.51204E-006	0.00000E+000	-1.90001E-001	0.00000E+000	7	...........	0	1469.15
	612	122.6	-1.88122E-001	-4.47410E-006	0.00000E+000	-1.88001E-001	0.00000E+000	7	...........	0	1469.15
	614	123	-1.86144E-001	-4.43842E-006	0.00000E+000	-1.86002E-001	0.00000E+000	7	...........	0	1469.15
	616	123.4	-1.84126E-001	-4.40114E-006	0.00000E+000	-1.84003E-001	0.00000E+000	7	...........	0	1469.15
	618	123.8	-1.82122E-001	-4.36862E-006	0.00000E+000	-1.82003E-001	0.00000E+000	7	...........	0	1469.24
	620	124.2	-1.80143E-001	-4.34781E-006	0.00000E+000	-1.80004E-001	0.00000E+000	7	...........	0	1469.24
	622	124.6	-1.78116E-001	-4.31267E-006	0.00000E+000	-1.78005E-001	0.00000E+000	7	...........	0	1469.24
	624	125	-1.76106E-001	-4.28670E-006	0.00000E+000	-1.76005E-001	0.00000E+000	7	...........	0	1469.24
	626	125.4	-1.74128E-001	-4.24998E-006	0.00000E+000	-1.74006E-001	0.00000E+000	7	...........	0	1469.24
	628	125.8	-1.72122E-001	-4.21559E-006	0.00000E+000	-1.72006E-001	0.00000E+000	7	...........	0	1469.24
	630	126.2	-1.70139E-001	-4.18172E-006	0.00000E+000	-1.70007E-001	0.00000E+000	7	...........	0	1469.24
	632	126.6	-1.68129E-001	-4.14483E-006	0.00000E+000	-1.67995E-001	0.00000E+000	7	...........	0	1469.15
	634	127	-1.66105E-001	-4.10950E-006	0.00000E+000	-1.65996E-001	0.00000E+000	7	...........	0	1469.15
	636	127.4	-1.64109E-001	-4.07542E-006	0.00000E+000	-1.63996E-001	0.00000E+000	7	...........	0	1469.15
	638	127.8	-1.62120E-001	-4.03739E-006	0.00000E+000	-1.61997E-001	0.00000E+000	7	...........	0	1469.15
	640	128.2	-1.60122E-001	-4.00128E-006	0.00000E+000	-1.59997E-001	0.00000E+000	7	...........	0	1469.15
	642	128.6	-1.58129E-001	-3.96475E-006	0.00000E+000	-1.57998E-001	0.00000E+000	7	...........	0	1469.15
	644	129	-1.56130E-001	-3.92988E-006	0.00000E+000	-1.55999E-001	0.00000E+000	7	...........	0	1469.15
	646	129.4	-1.54131E-001	-3.89521E-006	0.00000E+000	-1.53999E-001	0.00000E+000	7	...........	0	1469.15
	648	129.8	-1.52112E-001	-3.86183E-006	0.00000E+000	-1.52000E-001	0.00000E+000	7	...........	0	1469.15
	650	130.2	-1.50114E-001	-3.83363E-006	0.00000E+000	-1.50000E-001	0.00000E+000	7	...........	0	1469.15
	652	130.6	-1.48126E-001	-3.79852E-006	0.00000E+000	-1.48001E-001	0.00000E+000	7	...........	0	1469.15
	654	131	-1.46106E-001	-3.76370E-006	0.00000E+000	-1.46002E-001	0.00000E+000	7	...........	0	1469.15
	656	131.4	-1.44124E-001	-3.72862E-006	0.00000E+000	-1.44002E-001	0.00000E+000	7	...........	0	1469.15
	658	131.8	-1.42128E-001	-3.69268E-006	0.00000E+000	-1.42003E-001	0.00000E+000	7	...........	0	1469.15
	660	132.2	-1.40102E-001	-3.65903E-006	0.00000E+000	-1.40003E-001	0.00000E+000	7	...........	0	1469.15
	662	132.6	-1.38120E-001	-3.62779E-006	0.00000E+000	-1.38004E-001	0.00000E+000	7	...........	0	1469.15
	664	133	-1.36118E-001	-3.59717E-006	0.00000E+000	-1.36005E-001	0.00000E+000	7	...........	0	1469.15
	666	133.4	-1.34123E-001	-3.57661E-006	0.00000E+000	-1.34005E-001	0.00000E+000	7	...........	0	1469.15
	668	133.8	-1.32131E-001	-3.53132E-006	0.00000E+000	-1.32006E-001	0.00000E+000	7	...........	0	1469.15
	670	134.2	-1.30131E-001	-3.49651E-006	0.00000E+000	-1.30006E-001	0.00000E+000	7	...........	0	1469.15
	672	134.6	-1.28144E-001	-3.47007E-006	0.00000E+000	-1.28007E-001	0.00000E+000	7	...........	0	1469.15
	674	135	-1.26100E-001	-3.44027E-006	0.00000E+000	-1.25995E-001	0.00000E+000	7	...........	0	1469.15
	676	135.4	-1.24097E-001	-3.40465E-006	0.00000E+000	-1.23996E-001	0.00000E+000	7	...........	0	1469.15
	678	135.8	-1.22106E-001	-3.37706E-006	0.00000E+000	-1.21996E-001	0.00000E+000	7	...........	0	1469.15
	680	136.2	-1.20097E-001	-3.34360E-006	0.00000E+000	-1.19997E-001	0.00000E+000	7	...........	0	1469.15
	682	136.6	-1.18117E-001	-3.31218E-006	0.00000E+000	-1.17997E-001	0.00000E+000	7	...........	0	1469.15
	684	137	-1.16131E-001	-3.28418E-006	0.00000E+000	-1.15998E-001	0.00000E+000	7	...........	0	1469.15
	686	137.4	-1.14114E-001	-3.24879E-006	0.00000E+000	-1.13999E-001	0.00000E+000	7	...........	0	1469.15
	688	137.8	-1.12112E-001	-3.22580E-006	0.00000E+000	-1.11999E-001	0.00000E+000	7	...........	0	1469.15
	690	138.2	-1.10115E-001	-3.18531E-006	0.00000E+000	-1.10000E-001	0.00000E+000	7	...........	0	1469.15
	692	138.6	-1.08118E-001	-3.15185E-006	0.00000E+000	-1.08001E-001	0.00000E+000	7	...........	0	1469.15
	694	139	-1.06128E-001	-3.12033E-006	0.00000E+000	-1.06001E-001	0.00000E+000	7	...........	0	1469.15
	696	139.4	-1.04124E-001	-3.09097E-006	0.00000E+000	-1.04002E-001	0.00000E+000	7	...........	0	1469.15
	698	139.8	-1.02106E-001	-3.06123E-006	0.00000E+000	-1.02002E-001	0.00000E+000	7	...........	0	1469.24
	700	140.2	-1.00123E-001	-3.03071E-006	0.00000E+000	-1.00003E-001	0.00000E+000	7	...........	0	1469.24
	702	140.6	-9.81131E-002	-2.99845E-006	0.00000E+000	-9.80035E-002	0.00000E+000	7	...........	0	1469.15
	704	141	-9.61159E-002	-2.97359E-006	0.00000E+000	-9.60041E-002	0.00000E+000	7	...........	0	1469.15
	706	141.4	-9.41108E-002	-2.93973E-006	0.00000E+000	-9.40047E-002	0.00000E+000	7	...........	0	1469.15
	708	141.8	-9.21276E-002	-2.90738E-006	0.00000E+000	-9.20053E-002	0.00000E+000	7	...........	0	1469.15
	710	142.2	-9.01253E-002	-2.87735E-006	0.00000E+000	-9.00059E-002	0.00000E+000	7	...........	0	1469.15
	712	142.6	-8.81129E-002	-2.84854E-006	0.00000E+000	-8.80065E-002	0.00000E+000	7	...........	0	1469.24
	714	143	-8.61197E-002	-2.81586E-006	0.00000E+000	-8.60071E-002	0.00000E+000	7	...........	0	1469.24
	716	143.4	-8.41148E-002	-2.78883E-006	0.00000E+000	-8.39952E-002	0.00000E+000	7	...........	0	1469.24
	718	143.8	-8.21040E-002	-2.75613E-006	0.00000E+000	-8.19958E-002	0.00000E+000	7	...........	0	1469.15
	720	144.2	-8.01316E-002	-2.72666E-006	0.00000E+000	-7.99964E-002	0.00000E+000	7	...........	0	1469.15
	722	144.6	-7.81209E-002	-2.69746E-006	0.00000E+000	-7.79970E-002	0.00000E+000	7	...........	0	1469.15
	724	145	-7.61113E-002	-2.66473E-006	0.00000E+000	-7.59976E-002	0.00000E+000	7	...........	0	1469.15
	726	145.4	-7.41032E-002	-2.63458E-006	0.00000E+000	-7.39982E-002	0.00000E+000	7	...........	0	1469.15
	728	145.8	-7.21002E-002	-2.60654E-006	0.00000E+000	-7.19988E-002	0.00000E+000	7	...........	0	1469.24
	730	146.2	-7.01022E-002	-2.57466E-006	0.00000E+000	-6.99994E-002	0.00000E+000	7	...........	0	1469.24
	732	146.6	-6.81146E-002	-2.54530E-006	0.00000E+000	-6.80000E-002	0.00000E+000	7	...........	0	1469.24
	734	147	-6.61139E-002	-2.51347E-006	0.00000E+000	-6.60006E-002	0.00000E+000	7	...........	0	1469.24
	736	147.4	-6.41203E-002	-2.48328E-006	0.00000E+000	-6.40012E-002	0.00000E+000	7	...........	0	1469.24
	738	147.8	-6.21048E-002	-2.44828E-006	0.00000E+000	-6.20018E-002	0.00000E+000	7	...........	0	1469.15
	740	148.2	-6.01038E-002	-2.42248E-006	0.00000E+000	-6.00024E-002	0.00000E+000	7	...........	0	1469.15
	742	148.6	-5.81274E-002	-2.39032E-006	0.00000E+000	-5.80030E-002	0.00000E+000	7	...........	0	1469.15
	744	149	-5.61177E-002	-2.35777E-006	0.00000E+000	-5.60036E-002	0.00000E+000	7	...........	0	1469.15
	746	149.4	-5.41073E-002	-2.32911E-006	0.00000E+000	-5.40042E-002	0.00000E+000	7	...........	0	1469.15
	748	149.8	-5.21182E-002	-2.30115E-006	0.00000E+000	-5.20048E-002	0.00000E+000	7	...........	0	1469.15
	750	150.2	-5.01335E-002	-2.27470E-006	0.00000E+000	-5.00054E-002	0.00000E+000	7	...........	0	1469.15
	752	150.6	-4.81099E-002	-2.24386E-006	0.00000E+000	-4.80060E-002	0.00000E+000	7	...........	0	1469.15
	754	151	-4.60945E-002	-2.21403E-006	0.00000E+000	-4.60066E-002	0.00000E+000	7	...........	0	1469.15
	756	151.4	-4.40915E-002	-2.18293E-006	0.00000E+000	-4.40072E-002	0.00000E+000	7	...........	0	1469.15
	758	151.8	-4.21008E-002	-2.15842E-006	0.00000E+000	-4.19953E-002	0.00000E+000	7	...........	0	1469.15
	760	152.2	-4.01051E-002	-2.13096E-006	0.00000E+000	-3.99959E-002	0.00000E+000	7	...........	0	1469.15
	762	152.6	-3.80757E-002	-2.09828E-006	0.00000E+000	-3.79965E-002	0.00000E+000	7	...........	0	1469.15
	764	153	-3.61013E-002	-2.06988E-006	0.00000E+000	-3.59971E-002	0.00000E+000	7	...........	0	1469.15
	766	153.4	-3.40922E-002	-2.04546E-006	0.00000E+000	-3.39977E-002	0.00000E+000	7	...........	0	1469.15
	768	153.8	-3.21135E-002	-2.02639E-006	0.00000E+000	-3.19983E-002	0.00000E+000	7	...........	0	1469.15
	770	154.2	-3.01005E-002	-1.99394E-006	0.00000E+000	-2.99989E-002	0.00000E+000	7	...........	0	1469.15
	772	154.6	-2.81102E-002	-1.96444E-006	0.00000E+000	-2.79995E-002	0.00000E+000	7	...........	0	1469.15
	774	155	-2.61067E-002	-1.93099E-006	0.00000E+000	-2.60001E-002	0.00000E+000	7	...........	0	1469.15
	776	155.4	-2.41179E-002	-1.90048E-006	0.00000E+000	-2.40007E-002	0.00000E+000	7	...........	0	1469.15
	778	155.8	-2.20916E-002	-1.87001E-006	0.00000E+000	-2.20013E-002	0.00000E+000	7	...........	0	1469.15
	780	156.2	-2.00893E-002	-1.84193E-006	0.00000E+000	-2.00019E-002	0.00000E+000	7	...........	0	1469.15
	782	156.6	-1.81015E-002	-1.81128E-006	0.00000E+000	-1.80025E-002	0.00000E+000	7	...........	0	1469.24
	784	157	-1.61020E-002	-1.78255E-006	0.00000E+000	-1.60031E-002	0.00000E+000	7	...........	0	1469.24
	786	157.4	-1.40967E-002	-1.75245E-006	0.00000E+000	-1.40037E-002	0.00000E+000	7	...........	0	1469.24
	788	157.8	-1.20953E-002	-1.75662E-006	0.00000E+000	-1.20043E-002	0.00000E+000	7	...........	0	1469.24
	790	158.2	-1.00905E-002	-1.72869E-006	0.00000E+000	-1.00049E-002	0.00000E+000	7	...........	0	1469.24
	792	158.6	-8.09836E-003	-1.69699E-006	0.00000E+000	-8.00550E-003	0.00000E+000	7	...........	0	1469.15
	794	159	-6.08649E-003	-1.66763E-006	0.00000E+000	-6.00612E-003	0.00000E+000	7	...........	0	1469.15
	796	159.4	-4.10881E-003	-1.63773E-006	0.00000E+000	-4.00671E-003	0.00000E+000	7	...........	0	1469.15
	798	159.8	-2.10925E-003	-1.60699E-006	0.00000E+000	-2.00731E-003	0.00000E+000	7	...........	0	1469.15
	800	160.2	-1.04345E-004	-1.57987E-006	0.00000E+000	4.58956E-006	0.00000E+000	7	...........	0	1469.15