File: input/MYCIE_#2.DTA
EXPLAIN
TAG	CV
TITLE	LABEL	MYCIE	Test Identifier
DATE	LABEL	17.7.2024	Date
TIME	LABEL	13:11:33	Time
NOTES	NOTES	1	Notes...

PSTAT	PSTAT	IFC1010-34090	Potentiostat
VINIT	POTEN	0.00000E+000	F	Initial E (V)
VLIMIT1	POTEN	4.00000E-001	F	Scan Limit 1 (V)
VLIMIT2	POTEN	-3.00000E-001	F	Scan Limit 2 (V)
VFINAL	POTEN	0.00000E+000	F	Final E (V)
SCANRATE	QUANT	2.00000E+002	Scan Rate (mV/s)
STEPSIZE	QUANT	2.00000E+000	Step Size (mV)
CYCLES	IQUANT	50	Cycles (#)
IMODE	SELECTOR	0	I/E Range Mode
IRANGE	QUANT	3.00000E-001	Max Current (mA)
AREA	QUANT	1.00000E+000	Sample Area (cm^2)
EQDELAY	QUANT	0.00000E+000	Equil. Time (s)
IRCOMP	SELECTOR	0	IRComp
PFCOR	QUANT	5.00000E+001	PF Corr. (ohm)
SAMPLINGMODE	SELECTOR	1	Sampling Mode
EOC	QUANT	0.7205974	Open Circuit (V)
ELECTRODETYPE	SELECTOR	0	Electrode Type
STRIPPING	TOGGLE	F	Used for Stripping
SEQUENCER	TOGGLE	TRUE	Run as Sequence
PSTATMODEL	IQUANT	64	Pstat Model
PSTATSECTION	LABEL	IFC1010-34090	Pstat Section
PSTATSERIALNO	LABEL	34090	Pstat Serial Number
CTRLMODE	IQUANT	1	Control Mode
ELECTROMETER	IQUANT	0	RE=0 or CS=1
IESTAB	IQUANT	2	I/E Stability
CASPEED	IQUANT	4	Control Amp Speed
CONVENTION	IQUANT	1	Current Convention
ICHRANGE	IQUANT	2	Ich Range
ICHRANGEMODE	TOGGLE	F	Ich Auto Range
ICHOFFSETENABLE	TOGGLE	F	Ich Offset Enable
ICHOFFSET	QUANT	0	Ich Offset (V)
ICHFILTER	IQUANT	3	Ich Filter
VCHRANGE	IQUANT	2	Vch Range
VCHRANGEMODE	TOGGLE	F	Vch Auto Range
VCHOFFSETENABLE	TOGGLE	F	Vch Offset Enable
VCHOFFSET	QUANT	0	Vch Offset (V)
VCHFILTER	IQUANT	3	Vch Filter
IERANGELOWERLIMIT	IQUANT	4	I/E Range Lower Limit
IERANGEMODE	TOGGLE	T	I/E AutoRange
IERANGE	IQUANT	9	I/E Range
ACHSELECT	IQUANT	0	Ach Select
ACHRANGE	IQUANT	2	Ach Range
ACHOFFSETENABLE	TOGGLE	F	Ach Offset Enable
ACHOFFSET	QUANT	0	Ach Offset (V)
ACHFILTER	IQUANT	1	Ach Filter
SENSECABLEID	IQUANT	13	Sense Cable ID
PWRCABLEID	IQUANT	13	Power Cable ID
DCCALDATE	LABEL	1/30/2024	DC Calibration Date
ACCALDATE	LABEL	1/8/2024	AC Calibration Date
FRAMEWORKVERSION	LABEL	7.10.3	Framework Version
INSTRUMENTVERSION	LABEL	4.91	Instrument Version
COMMVERSION	LABEL	3.10	Communications Version
CPUPLDVERSION	LABEL	2.22	CPU PLD Version
CTRLPLDVERSION	LABEL	0.00	CTRL PLD Version
PSTATPLDVERSION	LABEL	0.00	PSTAT PLD Version
CURVE1	TABLE
	Pt	T	Vf	Im	Vu	Sig	Ach	IERange	Over	Temp
	#	s	V vs. Ref.	A	V	V	V	#	bits	deg C
	0	0.01	2.59006E-004	1.09253E-003	0.00000E+000	1.72108E-006	0.00000E+000	9	....ih..i..	1467.79
	2	0.03	4.26490E-003	1.02270E-003	0.00000E+000	4.00131E-003	0.00000E+000	10	...........	1467.79
	4	0.05	8.25494E-003	9.62009E-004	0.00000E+000	8.00091E-003	0.00000E+000	10	...........	1467.79
	6	0.07	1.22442E-002	9.18173E-004	0.00000E+000	1.20005E-002	0.00000E+000	10	...........	1467.79
	8	0.09	1.62667E-002	8.84978E-004	0.00000E+000	1.60001E-002	0.00000E+000	10	...........	1467.79
	10	0.11	2.02609E-002	8.59682E-004	0.00000E+000	1.99997E-002	0.00000E+000	10	...........	1467.79
	12	0.13	2.42760E-002	8.39869E-004	0.00000E+000	2.39993E-002	0.00000E+000	10	...........	1467.79
	14	0.15	2.82794E-002	8.24780E-004	0.00000E+000	2.79989E-002	0.00000E+000	10	...........	1467.79
	16	0.17	3.22719E-002	8.12944E-004	0.00000E+000	3.19985E-002	0.00000E+000	10	...........	1467.79
	18	0.19	3.62712E-002	8.01632E-004	0.00000E+000	3.59981E-002	0.00000E+000	9	...........	1467.79
	20	0.21	4.02962E-002	7.94537E-004	0.00000E+000	3.99977E-002	0.00000E+000	9	...........	1467.79
	22	0.23	4.42929E-002	7.89313E-004	0.00000E+000	4.39972E-002	0.00000E+000	9	...........	1467.79
	24	0.25	4.82997E-002	7.85481E-004	0.00000E+000	4.79968E-002	0.00000E+000	9	...........	1467.79
	26	0.27	5.22880E-002	7.83020E-004	0.00000E+000	5.19964E-002	0.00000E+000	9	...........	1467.79
	28	0.29	5.62914E-002	7.81345E-004	0.00000E+000	5.59960E-002	0.00000E+000	9	...........	1467.79
	30	0.31	6.02790E-002	7.80586E-004	0.00000E+000	5.99956E-002	0.00000E+000	9	...........	1467.79
	32	0.33	6.42874E-002	7.80393E-004	0.00000E+000	6.39952E-002	0.00000E+000	9	...........	1467.79
	34	0.35	6.82941E-002	7.81182E-004	0.00000E+000	6.79948E-002	0.00000E+000	9	...........	1467.79
	36	0.37	7.22925E-002	7.82360E-004	0.00000E+000	7.19944E-002	0.00000E+000	9	...........	1467.79
	38	0.39	7.62984E-002	7.84381E-004	0.00000E+000	7.59940E-002	0.00000E+000	9	...........	1467.79
	40	0.41	8.03193E-002	7.87227E-004	0.00000E+000	8.00061E-002	0.00000E+000	9	...........	1467.79
	42	0.43	8.43135E-002	7.90643E-004	0.00000E+000	8.40057E-002	0.00000E+000	9	...........	1467.79
	44	0.45	8.83052E-002	7.95112E-004	0.00000E+000	8.80053E-002	0.00000E+000	9	...........	1467.79
	46	0.47	9.22961E-002	8.00127E-004	0.00000E+000	9.20049E-002	0.00000E+000	9	...........	1467.79
	48	0.49	9.63145E-002	8.06358E-004	0.00000E+000	9.60045E-002	0.00000E+000	9	...........	1467.79
	50	0.51	1.00311E-001	8.14124E-004	0.00000E+000	1.00004E-001	0.00000E+000	9	...........	1467.79
	52	0.53	1.04315E-001	8.22580E-004	0.00000E+000	1.04004E-001	0.00000E+000	9	...........	1467.79
	54	0.55	1.08310E-001	8.32895E-004	0.00000E+000	1.08003E-001	0.00000E+000	9	...........	1467.79
	56	0.57	1.12302E-001	8.44621E-004	0.00000E+000	1.12003E-001	0.00000E+000	9	...........	1467.79
	58	0.59	1.16305E-001	8.58676E-004	0.00000E+000	1.16002E-001	0.00000E+000	9	...........	1467.79
	60	0.61	1.20296E-001	8.75082E-004	0.00000E+000	1.20002E-001	0.00000E+000	9	...........	1467.79
	62	0.63	1.24312E-001	8.94562E-004	0.00000E+000	1.24002E-001	0.00000E+000	9	...........	1467.79
	64	0.65	1.28339E-001	9.20680E-004	0.00000E+000	1.28001E-001	0.00000E+000	10	...........	1467.79
	66	0.67	1.32324E-001	9.48028E-004	0.00000E+000	1.32001E-001	0.00000E+000	10	...........	1467.79
	68	0.69	1.36308E-001	9.82463E-004	0.00000E+000	1.36000E-001	0.00000E+000	10	...........	1467.79
	70	0.71	1.40320E-001	1.02684E-003	0.00000E+000	1.40000E-001	0.00000E+000	10	...........	1467.79
	72	0.73	1.44327E-001	1.08571E-003	0.00000E+000	1.44000E-001	0.00000E+000	10	...........	1467.79
	74	0.75	1.48324E-001	1.16380E-003	0.00000E+000	1.47999E-001	0.00000E+000	10	...........	1467.79
	76	0.77	1.52310E-001	1.26376E-003	0.00000E+000	1.51999E-001	0.00000E+000	10	...........	1467.79
	78	0.79	1.56339E-001	1.38076E-003	0.00000E+000	1.55998E-001	0.00000E+000	10	...........	1467.79
	80	0.81	1.60338E-001	1.49997E-003	0.00000E+000	1.59998E-001	0.00000E+000	10	...........	1467.71
	82	0.83	1.64331E-001	1.59775E-003	0.00000E+000	1.63998E-001	0.00000E+000	10	...........	1467.70
	84	0.85	1.68354E-001	1.65104E-003	0.00000E+000	1.67997E-001	0.00000E+000	10	...........	1467.70
	86	0.87	1.72350E-001	1.64895E-003	0.00000E+000	1.71997E-001	0.00000E+000	10	...........	1467.70
	88	0.89	1.76341E-001	1.59815E-003	0.00000E+000	1.75996E-001	0.00000E+000	10	...........	1467.70
	90	0.91	1.80357E-001	1.51680E-003	0.00000E+000	1.79996E-001	0.00000E+000	10	...........	1467.70
	92	0.93	1.84349E-001	1.42707E-003	0.00000E+000	1.83996E-001	0.00000E+000	10	...........	1467.70
	94	0.95	1.88349E-001	1.34538E-003	0.00000E+000	1.87995E-001	0.00000E+000	10	...........	1467.70
	96	0.97	1.92350E-001	1.27540E-003	0.00000E+000	1.91995E-001	0.00000E+000	10	...........	1467.70
	98	0.99	1.96345E-001	1.21169E-003	0.00000E+000	1.95994E-001	0.00000E+000	10	...........	1467.70
	100	1.01	2.00343E-001	1.15256E-003	0.00000E+000	1.99994E-001	0.00000E+000	10	...........	1467.70
	102	1.03	2.04339E-001	1.09480E-003	0.00000E+000	2.03993E-001	0.00000E+000	10	...........	1467.70
	104	1.05	2.08350E-001	1.03600E-003	0.00000E+000	2.08006E-001	0.00000E+000	10	...........	1467.70
	106	1.07	2.12364E-001	9.75939E-004	0.00000E+000	2.12005E-001	0.00000E+000	10	...........	1467.70
	108	1.09	2.16344E-001	9.21771E-004	0.00000E+000	2.16005E-001	0.00000E+000	10	...........	1467.70
	110	1.11	2.20366E-001	8.85464E-004	0.00000E+000	2.20004E-001	0.00000E+000	10	...........	1467.70
	112	1.13	2.24375E-001	8.62387E-004	0.00000E+000	2.24004E-001	0.00000E+000	10	...........	1467.70
	114	1.15	2.28357E-001	8.44792E-004	0.00000E+000	2.28004E-001	0.00000E+000	10	...........	1467.70
	116	1.17	2.32394E-001	8.29985E-004	0.00000E+000	2.32003E-001	0.00000E+000	10	...........	1467.70
	118	1.19	2.36365E-001	8.16116E-004	0.00000E+000	2.36003E-001	0.00000E+000	10	...........	1467.70
	120	1.21	2.40383E-001	8.02825E-004	0.00000E+000	2.40002E-001	0.00000E+000	10	...........	1467.70
	122	1.23	2.44381E-001	7.86769E-004	0.00000E+000	2.44002E-001	0.00000E+000	9	...........	1467.70
	124	1.25	2.48361E-001	7.72570E-004	0.00000E+000	2.48001E-001	0.00000E+000	9	...........	1467.70
	126	1.27	2.52362E-001	7.58664E-004	0.00000E+000	2.52001E-001	0.00000E+000	9	...........	1467.70
	128	1.29	2.56377E-001	7.44101E-004	0.00000E+000	2.56001E-001	0.00000E+000	9	...........	1467.70
	130	1.31	2.60378E-001	7.30154E-004	0.00000E+000	2.60000E-001	0.00000E+000	9	...........	1467.70
	132	1.33	2.64384E-001	7.16760E-004	0.00000E+000	2.64000E-001	0.00000E+000	9	...........	1467.70
	134	1.35	2.68369E-001	7.04723E-004	0.00000E+000	2.67999E-001	0.00000E+000	9	...........	1467.70
	136	1.37	2.72394E-001	6.94001E-004	0.00000E+000	2.71999E-001	0.00000E+000	9	...........	1467.70
	138	1.39	2.76396E-001	6.84840E-004	0.00000E+000	2.75999E-001	0.00000E+000	9	...........	1467.70
	140	1.41	2.80382E-001	6.77136E-004	0.00000E+000	2.79998E-001	0.00000E+000	9	...........	1467.70
	142	1.43	2.84408E-001	6.70864E-004	0.00000E+000	2.83998E-001	0.00000E+000	9	...........	1467.70
	144	1.45	2.88386E-001	6.65661E-004	0.00000E+000	2.87997E-001	0.00000E+000	9	...........	1467.70
	146	1.47	2.92389E-001	6.61252E-004	0.00000E+000	2.91997E-001	0.00000E+000	9	...........	1467.70
	148	1.49	2.96405E-001	6.57704E-004	0.00000E+000	2.95997E-001	0.00000E+000	9	...........	1467.70
	150	1.51	3.00395E-001	6.54898E-004	0.00000E+000	2.99996E-001	0.00000E+000	9	...........	1467.70
	152	1.53	3.04404E-001	6.52749E-004	0.00000E+000	3.03996E-001	0.00000E+000	9	...........	1467.70
	154	1.55	3.08411E-001	6.51253E-004	0.00000E+000	3.07995E-001	0.00000E+000	9	...........	1467.70
	156	1.57	3.12407E-001	6.50250E-004	0.00000E+000	3.11995E-001	0.00000E+000	9	...........	1467.70
	158	1.59	3.16400E-001	6.49694E-004	0.00000E+000	3.15995E-001	0.00000E+000	9	...........	1467.70
	160	1.61	3.20392E-001	6.49906E-004	0.00000E+000	3.19994E-001	0.00000E+000	9	...........	1467.70
	162	1.63	3.24401E-001	6.50035E-004	0.00000E+000	3.23994E-001	0.00000E+000	9	...........	1467.70
	164	1.65	3.28392E-001	6.50773E-004	0.00000E+000	3.27993E-001	0.00000E+000	9	...........	1467.70
	166	1.67	3.32423E-001	6.51885E-004	0.00000E+000	3.32005E-001	0.00000E+000	9	...........	1467.70
	168	1.69	3.36429E-001	6.53226E-004	0.00000E+000	3.36005E-001	0.00000E+000	9	...........	1467.70
	170	1.71	3.40424E-001	6.54817E-004	0.00000E+000	3.40005E-001	0.00000E+000	9	...........	1467.70
	172	1.73	3.44429E-001	6.56629E-004	0.00000E+000	3.44004E-001	0.00000E+000	9	...........	1467.70
	174	1.75	3.48444E-001	6.58619E-004	0.00000E+000	3.48004E-001	0.00000E+000	9	...........	1467.70
	176	1.77	3.52428E-001	6.61908E-004	0.00000E+000	3.52003E-001	0.00000E+000	9	...........	1467.70
	178	1.79	3.56420E-001	6.63460E-004	0.00000E+000	3.56003E-001	0.00000E+000	9	...........	1467.70
	180	1.81	3.60447E-001	6.65956E-004	0.00000E+000	3.60003E-001	0.00000E+000	9	...........	1467.31
	182	1.83	3.64434E-001	6.68606E-004	0.00000E+000	3.64002E-001	0.00000E+000	9	...........	1467.25
	184	1.85	3.68425E-001	6.71581E-004	0.00000E+000	3.68002E-001	0.00000E+000	9	...........	1467.25
	186	1.87	3.72456E-001	6.74467E-004	0.00000E+000	3.72001E-001	0.00000E+000	9	...........	1467.25
	188	1.89	3.76438E-001	6.77592E-004	0.00000E+000	3.76001E-001	0.00000E+000	9	...........	1467.25
	190	1.91	3.80438E-001	6.80773E-004	0.00000E+000	3.80001E-001	0.00000E+000	9	...........	1467.25
	192	1.93	3.84441E-001	6.84001E-004	0.00000E+000	3.84000E-001	0.00000E+000	9	...........	1467.25
	194	1.95	3.88446E-001	6.87271E-004	0.00000E+000	3.88000E-001	0.00000E+000	9	...........	1467.25
	196	1.97	3.92439E-001	6.90637E-004	0.00000E+000	3.91999E-001	0.00000E+000	9	...........	1467.25
	198	1.99	3.96436E-001	6.93965E-004	0.00000E+000	3.95999E-001	0.00000E+000	9	...........	1467.25
	200	2.01	4.00463E-001	6.97291E-004	0.00000E+000	3.99999E-001	0.00000E+000	9	...........	1467.25
	202	2.03	3.96443E-001	6.80582E-004	0.00000E+000	3.95999E-001	0.00000E+000	9	...........	1467.25
	204	2.05	3.92447E-001	6.71110E-004	0.00000E+000	3.91999E-001	0.00000E+000	9	...........	1467.25
	206	2.07	3.88452E-001	6.63092E-004	0.00000E+000	3.88000E-001	0.00000E+000	9	...........	1467.25
	208	2.09	3.84447E-001	6.56101E-004	0.00000E+000	3.84000E-001	0.00000E+000	9	...........	1467.25
	210	2.11	3.80446E-001	6.49942E-004	0.00000E+000	3.80001E-001	0.00000E+000	9	...........	1467.25
	212	2.13	3.76433E-001	6.44236E-004	0.00000E+000	3.76001E-001	0.00000E+000	9	...........	1467.25
	214	2.15	3.72452E-001	6.38922E-004	0.00000E+000	3.72001E-001	0.00000E+000	9	...........	1467.25
	216	2.17	3.68418E-001	6.33994E-004	0.00000E+000	3.68002E-001	0.00000E+000	9	...........	1467.25
	218	2.19	3.64431E-001	6.29808E-004	0.00000E+000	3.64002E-001	0.00000E+000	9	...........	1467.25
	220	2.21	3.60437E-001	6.23033E-004	0.00000E+000	3.60003E-001	0.00000E+000	9	...........	1467.25
	222	2.23	3.56414E-001	6.17512E-004	0.00000E+000	3.56003E-001	0.00000E+000	9	...........	1467.25
	224	2.25	3.52408E-001	6.11403E-004	0.00000E+000	3.52003E-001	0.00000E+000	9	...........	1467.25
	226	2.27	3.48424E-001	6.06384E-004	0.00000E+000	3.48004E-001	0.00000E+000	9	...........	1467.25
	228	2.29	3.44409E-001	6.01675E-004	0.00000E+000	3.44004E-001	0.00000E+000	9	...........	1467.25
	230	2.31	3.40431E-001	5.95319E-004	0.00000E+000	3.40005E-001	0.00000E+000	9	...........	1467.25
	232	2.33	3.36439E-001	5.88231E-004	0.00000E+000	3.36005E-001	0.00000E+000	9	...........	1467.25
	234	2.35	3.32417E-001	5.81760E-004	0.00000E+000	3.32005E-001	0.00000E+000	9	...........	1467.25
	236	2.37	3.28381E-001	5.75718E-004	0.00000E+000	3.27993E-001	0.00000E+000	9	...........	1467.25
	238	2.39	3.24407E-001	5.70214E-004	0.00000E+000	3.23994E-001	0.00000E+000	9	...........	1467.25
	240	2.41	3.20385E-001	5.65067E-004	0.00000E+000	3.19994E-001	0.00000E+000	9	...........	1467.25
	242	2.43	3.16392E-001	5.60092E-004	0.00000E+000	3.15995E-001	0.00000E+000	9	...........	1467.25
	244	2.45	3.12384E-001	5.55643E-004	0.00000E+000	3.11995E-001	0.00000E+000	9	...........	1467.25
	246	2.47	3.08404E-001	5.51222E-004	0.00000E+000	3.07995E-001	0.00000E+000	9	...........	1467.25
	248	2.49	3.04380E-001	5.46983E-004	0.00000E+000	3.03996E-001	0.00000E+000	9	...........	1467.25
	250	2.51	3.00394E-001	5.42858E-004	0.00000E+000	2.99996E-001	0.00000E+000	9	...........	1467.25
	252	2.53	2.96404E-001	5.38904E-004	0.00000E+000	2.95997E-001	0.00000E+000	9	...........	1467.25
	254	2.55	2.92391E-001	5.35037E-004	0.00000E+000	2.91997E-001	0.00000E+000	9	...........	1467.25
	256	2.57	2.88406E-001	5.31268E-004	0.00000E+000	2.87997E-001	0.00000E+000	9	...........	1467.25
	258	2.59	2.84416E-001	5.27524E-004	0.00000E+000	2.83998E-001	0.00000E+000	9	...........	1467.25
	260	2.61	2.80370E-001	5.23873E-004	0.00000E+000	2.79998E-001	0.00000E+000	9	...........	1467.25
	262	2.63	2.76395E-001	5.20305E-004	0.00000E+000	2.75999E-001	0.00000E+000	9	...........	1467.25
	264	2.65	2.72401E-001	5.16767E-004	0.00000E+000	2.71999E-001	0.00000E+000	9	...........	1467.25
	266	2.67	2.68366E-001	5.13168E-004	0.00000E+000	2.67999E-001	0.00000E+000	9	...........	1467.25
	268	2.69	2.64388E-001	5.09696E-004	0.00000E+000	2.64000E-001	0.00000E+000	9	...........	1467.25
	270	2.71	2.60385E-001	5.06152E-004	0.00000E+000	2.60000E-001	0.00000E+000	9	...........	1467.25
	272	2.73	2.56392E-001	5.02711E-004	0.00000E+000	2.56001E-001	0.00000E+000	9	...........	1467.25
	274	2.75	2.52370E-001	4.99284E-004	0.00000E+000	2.52001E-001	0.00000E+000	9	...........	1467.25
	276	2.77	2.48353E-001	4.95884E-004	0.00000E+000	2.48001E-001	0.00000E+000	9	...........	1467.25
	278	2.79	2.44381E-001	4.92583E-004	0.00000E+000	2.44002E-001	0.00000E+000	9	...........	1467.25
	280	2.81	2.40362E-001	4.89230E-004	0.00000E+000	2.40002E-001	0.00000E+000	9	...........	1467.17
	282	2.83	2.36353E-001	4.85930E-004	0.00000E+000	2.36003E-001	0.00000E+000	9	...........	1467.16
	284	2.85	2.32366E-001	4.82570E-004	0.00000E+000	2.32003E-001	0.00000E+000	9	...........	1467.16
	286	2.87	2.28369E-001	4.79367E-004	0.00000E+000	2.28004E-001	0.00000E+000	9	...........	1467.16
	288	2.89	2.24363E-001	4.76101E-004	0.00000E+000	2.24004E-001	0.00000E+000	9	...........	1467.16
	290	2.91	2.20373E-001	4.72903E-004	0.00000E+000	2.20004E-001	0.00000E+000	9	...........	1467.16
	292	2.93	2.16348E-001	4.69772E-004	0.00000E+000	2.16005E-001	0.00000E+000	9	...........	1467.16
	294	2.95	2.12357E-001	4.66606E-004	0.00000E+000	2.12005E-001	0.00000E+000	9	...........	1467.16
	296	2.97	2.08374E-001	4.63630E-004	0.00000E+000	2.08006E-001	0.00000E+000	9	...........	1467.16
	298	2.99	2.04336E-001	4.60567E-004	0.00000E+000	2.03993E-001	0.00000E+000	9	...........	1467.16
	300	3.01	2.00346E-001	4.57670E-004	0.00000E+000	1.99994E-001	0.00000E+000	9	...........	1467.16
	302	3.03	1.96341E-001	4.54722E-004	0.00000E+000	1.95994E-001	0.00000E+000	9	...........	1467.16
	304	3.05	1.92339E-001	4.51844E-004	0.00000E+000	1.91995E-001	0.00000E+000	9	...........	1467.16
	306	3.07	1.88329E-001	4.48998E-004	0.00000E+000	1.87995E-001	0.00000E+000	9	...........	1467.16
	308	3.09	1.84347E-001	4.46276E-004	0.00000E+000	1.83996E-001	0.00000E+000	9	...........	1467.16
	310	3.11	1.80347E-001	4.43625E-004	0.00000E+000	1.79996E-001	0.00000E+000	9	...........	1467.16
	312	3.13	1.76331E-001	4.40964E-004	0.00000E+000	1.75996E-001	0.00000E+000	9	...........	1467.16
	314	3.15	1.72329E-001	4.38344E-004	0.00000E+000	1.71997E-001	0.00000E+000	9	...........	1467.16
	316	3.17	1.68336E-001	4.35759E-004	0.00000E+000	1.67997E-001	0.00000E+000	9	...........	1467.16
	318	3.19	1.64305E-001	4.33251E-004	0.00000E+000	1.63998E-001	0.00000E+000	9	...........	1467.16
	320	3.21	1.60308E-001	4.30781E-004	0.00000E+000	1.59998E-001	0.00000E+000	9	...........	1467.16
	322	3.23	1.56314E-001	4.28362E-004	0.00000E+000	1.55998E-001	0.00000E+000	9	...........	1467.16
	324	3.25	1.52297E-001	4.26010E-004	0.00000E+000	1.51999E-001	0.00000E+000	9	...........	1467.16
	326	3.27	1.48311E-001	4.23605E-004	0.00000E+000	1.47999E-001	0.00000E+000	9	...........	1467.16
	328	3.29	1.44318E-001	4.21381E-004	0.00000E+000	1.44000E-001	0.00000E+000	9	...........	1467.16
	330	3.31	1.40316E-001	4.19009E-004	0.00000E+000	1.40000E-001	0.00000E+000	9	...........	1467.16
	332	3.33	1.36322E-001	4.16696E-004	0.00000E+000	1.36000E-001	0.00000E+000	9	...........	1467.16
	334	3.35	1.32316E-001	4.14448E-004	0.00000E+000	1.32001E-001	0.00000E+000	9	...........	1467.16
	336	3.37	1.28345E-001	4.12186E-004	0.00000E+000	1.28001E-001	0.00000E+000	9	...........	1467.16
	338	3.39	1.24322E-001	4.09867E-004	0.00000E+000	1.24002E-001	0.00000E+000	9	...........	1467.16
	340	3.41	1.20316E-001	4.06140E-004	0.00000E+000	1.20002E-001	0.00000E+000	9	...........	1467.16
	342	3.43	1.16332E-001	4.02091E-004	0.00000E+000	1.16002E-001	0.00000E+000	9	...........	1467.16
	344	3.45	1.12306E-001	3.98001E-004	0.00000E+000	1.12003E-001	0.00000E+000	9	...........	1467.16
	346	3.47	1.08296E-001	3.94011E-004	0.00000E+000	1.08003E-001	0.00000E+000	9	...........	1467.16
	348	3.49	1.04319E-001	3.90163E-004	0.00000E+000	1.04004E-001	0.00000E+000	9	...........	1467.16
	350	3.51	1.00314E-001	3.86534E-004	0.00000E+000	1.00004E-001	0.00000E+000	9	...........	1467.16
	352	3.53	9.63003E-002	3.82757E-004	0.00000E+000	9.60045E-002	0.00000E+000	9	...........	1467.16
	354	3.55	9.23102E-002	3.79185E-004	0.00000E+000	9.20049E-002	0.00000E+000	9	...........	1467.16
	356	3.57	8.83077E-002	3.75557E-004	0.00000E+000	8.80053E-002	0.00000E+000	9	...........	1467.16
	358	3.59	8.43168E-002	3.72109E-004	0.00000E+000	8.40057E-002	0.00000E+000	9	...........	1467.16
	360	3.61	8.03084E-002	3.68618E-004	0.00000E+000	8.00061E-002	0.00000E+000	9	...........	1467.16
	362	3.63	7.62959E-002	3.65220E-004	0.00000E+000	7.59940E-002	0.00000E+000	9	...........	1467.16
	364	3.65	7.22900E-002	3.61829E-004	0.00000E+000	7.19944E-002	0.00000E+000	9	...........	1467.16
	366	3.67	6.82782E-002	3.58578E-004	0.00000E+000	6.79948E-002	0.00000E+000	9	...........	1467.16
	368	3.69	6.42757E-002	3.55455E-004	0.00000E+000	6.39952E-002	0.00000E+000	9	...........	1467.16
	370	3.71	6.02631E-002	3.52341E-004	0.00000E+000	5.99956E-002	0.00000E+000	9	...........	1467.16
	372	3.73	5.62739E-002	3.49390E-004	0.00000E+000	5.59960E-002	0.00000E+000	9	...........	1467.16
	374	3.75	5.22839E-002	3.46603E-004	0.00000E+000	5.19964E-002	0.00000E+000	9	...........	1467.16
	376	3.77	4.82663E-002	3.43939E-004	0.00000E+000	4.79968E-002	0.00000E+000	9	...........	1467.16
	378	3.79	4.42738E-002	3.41339E-004	0.00000E+000	4.39972E-002	0.00000E+000	9	...........	1467.16
	380	3.81	4.02896E-002	3.38874E-004	0.00000E+000	3.99977E-002	0.00000E+000	9	...........	1467.32
	382	3.83	3.62737E-002	3.36471E-004	0.00000E+000	3.59981E-002	0.00000E+000	9	...........	1467.34
	384	3.85	3.22986E-002	3.33961E-004	0.00000E+000	3.19985E-002	0.00000E+000	9	...........	1467.34
	386	3.87	2.82944E-002	3.31578E-004	0.00000E+000	2.79989E-002	0.00000E+000	9	...........	1467.34
	388	3.89	2.42843E-002	3.28954E-004	0.00000E+000	2.39993E-002	0.00000E+000	9	...........	1467.34
	390	3.91	2.02676E-002	3.26230E-004	0.00000E+000	1.99997E-002	0.00000E+000	9	...........	1467.34
	392	3.93	1.62642E-002	3.23467E-004	0.00000E+000	1.60001E-002	0.00000E+000	9	...........	1467.34
	394	3.95	1.22658E-002	3.20545E-004	0.00000E+000	1.20005E-002	0.00000E+000	9	...........	1467.34
	396	3.97	8.26995E-003	3.17393E-004	0.00000E+000	8.00091E-003	0.00000E+000	9	...........	1467.34
	398	3.99	4.26990E-003	3.14077E-004	0.00000E+000	4.00131E-003	0.00000E+000	9	...........	1467.34
	400	4.01	2.71516E-004	3.10787E-004	0.00000E+000	1.72108E-006	0.00000E+000	9	...........	1467.34
	402	4.03	-3.75689E-003	3.07261E-004	0.00000E+000	-3.99787E-003	0.00000E+000	9	...........	1467.34
	404	4.05	-7.73776E-003	3.03622E-004	0.00000E+000	-7.99746E-003	0.00000E+000	9	...........	1467.34
	406	4.07	-1.17378E-002	2.99882E-004	0.00000E+000	-1.19971E-002	0.00000E+000	9	...........	1467.34
	408	4.09	-1.57612E-002	2.96090E-004	0.00000E+000	-1.59967E-002	0.00000E+000	9	...........	1467.34
	410	4.11	-1.97529E-002	2.92080E-004	0.00000E+000	-1.99962E-002	0.00000E+000	9	...........	1467.34
	412	4.13	-2.37505E-002	2.88055E-004	0.00000E+000	-2.39958E-002	0.00000E+000	9	...........	1467.34
	414	4.15	-2.77605E-002	2.84044E-004	0.00000E+000	-2.79954E-002	0.00000E+000	9	...........	1467.34
	416	4.17	-3.17731E-002	2.79944E-004	0.00000E+000	-3.19950E-002	0.00000E+000	9	...........	1467.34
	418	4.19	-3.57506E-002	2.75884E-004	0.00000E+000	-3.59946E-002	0.00000E+000	9	...........	1467.34
	420	4.21	-3.97699E-002	2.71737E-004	0.00000E+000	-3.99942E-002	0.00000E+000	9	...........	1467.34
	422	4.23	-4.37633E-002	2.67612E-004	0.00000E+000	-4.39938E-002	0.00000E+000	9	...........	1467.34
	424	4.25	-4.77817E-002	2.63541E-004	0.00000E+000	-4.80059E-002	0.00000E+000	9	...........	1467.34
	426	4.27	-5.18009E-002	2.59514E-004	0.00000E+000	-5.20055E-002	0.00000E+000	9	...........	1467.34
	428	4.29	-5.57959E-002	2.55553E-004	0.00000E+000	-5.60051E-002	0.00000E+000	9	...........	1467.34
	430	4.31	-5.97860E-002	2.51553E-004	0.00000E+000	-6.00047E-002	0.00000E+000	9	...........	1467.34
	432	4.33	-6.38111E-002	2.47625E-004	0.00000E+000	-6.40043E-002	0.00000E+000	9	...........	1467.34
	434	4.35	-6.77886E-002	2.43831E-004	0.00000E+000	-6.80039E-002	0.00000E+000	9	...........	1467.34
	436	4.37	-7.17786E-002	2.39922E-004	0.00000E+000	-7.20035E-002	0.00000E+000	9	...........	1467.34
	438	4.39	-7.57829E-002	2.36291E-004	0.00000E+000	-7.60030E-002	0.00000E+000	9	...........	1467.34
	440	4.41	-7.98021E-002	2.32530E-004	0.00000E+000	-8.00026E-002	0.00000E+000	9	...........	1467.34
	442	4.43	-8.37896E-002	2.28712E-004	0.00000E+000	-8.40022E-002	0.00000E+000	9	...........	1467.34
	444	4.45	-8.77763E-002	2.24844E-004	0.00000E+000	-8.80018E-002	0.00000E+000	9	...........	1467.34
	446	4.47	-9.17872E-002	2.20923E-004	0.00000E+000	-9.20014E-002	0.00000E+000	9	...........	1467.34
	448	4.49	-9.58065E-002	2.16947E-004	0.00000E+000	-9.60010E-002	0.00000E+000	9	...........	1467.34
	450	4.51	-9.97907E-002	2.12747E-004	0.00000E+000	-1.00001E-001	0.00000E+000	9	...........	1467.34
	452	4.53	-1.03807E-001	2.08522E-004	0.00000E+000	-1.04000E-001	0.00000E+000	9	...........	1467.34
	454	4.55	-1.07782E-001	2.04057E-004	0.00000E+000	-1.08000E-001	0.00000E+000	9	...........	1467.34
	456	4.57	-1.11774E-001	1.99422E-004	0.00000E+000	-1.11999E-001	0.00000E+000	9	...........	1467.34
	458	4.59	-1.15789E-001	1.94453E-004	0.00000E+000	-1.15999E-001	0.00000E+000	9	...........	1467.34
	460	4.61	-1.19778E-001	1.89451E-004	0.00000E+000	-1.19999E-001	0.00000E+000	9	...........	1467.34
	462	4.63	-1.23773E-001	1.84232E-004	0.00000E+000	-1.23998E-001	0.00000E+000	9	...........	1467.34
	464	4.65	-1.27779E-001	1.78762E-004	0.00000E+000	-1.27998E-001	0.00000E+000	9	...........	1467.34
	466	4.67	-1.31786E-001	1.73160E-004	0.00000E+000	-1.31997E-001	0.00000E+000	9	...........	1467.34
	468	4.69	-1.35797E-001	1.67199E-004	0.00000E+000	-1.35997E-001	0.00000E+000	9	...........	1467.34
	470	4.71	-1.39777E-001	1.61175E-004	0.00000E+000	-1.39997E-001	0.00000E+000	9	...........	1467.34
	472	4.73	-1.43780E-001	1.55052E-004	0.00000E+000	-1.43996E-001	0.00000E+000	9	...........	1467.34
	474	4.75	-1.47780E-001	1.48649E-004	0.00000E+000	-1.47996E-001	0.00000E+000	9	...........	1467.34
	476	4.77	-1.51791E-001	1.42158E-004	0.00000E+000	-1.51995E-001	0.00000E+000	9	...........	1467.34
	478	4.79	-1.55815E-001	1.35466E-004	0.00000E+000	-1.55995E-001	0.00000E+000	9	...........	1467.34
	480	4.81	-1.59797E-001	1.28581E-004	0.00000E+000	-1.59994E-001	0.00000E+000	9	...........	1467.10
	482	4.83	-1.63807E-001	1.21534E-004	0.00000E+000	-1.63994E-001	0.00000E+000	9	...........	1467.07
	484	4.85	-1.67810E-001	1.14359E-004	0.00000E+000	-1.67994E-001	0.00000E+000	9	...........	1467.07
	486	4.87	-1.71807E-001	1.06716E-004	0.00000E+000	-1.72006E-001	0.00000E+000	9	...........	1467.07
	488	4.89	-1.75812E-001	9.89742E-005	0.00000E+000	-1.76005E-001	0.00000E+000	9	...........	1467.07
	490	4.91	-1.79824E-001	9.08983E-005	0.00000E+000	-1.80005E-001	0.00000E+000	9	...........	1467.07
	492	4.93	-1.83814E-001	8.21949E-005	0.00000E+000	-1.84005E-001	0.00000E+000	9	...........	1467.07
	494	4.95	-1.87830E-001	7.28502E-005	0.00000E+000	-1.88004E-001	0.00000E+000	8	...........	1467.07
	496	4.97	-1.91852E-001	6.29649E-005	0.00000E+000	-1.92004E-001	0.00000E+000	8	...........	1467.07
	498	4.99	-1.95843E-001	5.23307E-005	0.00000E+000	-1.96003E-001	0.00000E+000	8	...........	1467.07
	500	5.01	-1.99836E-001	4.07049E-005	0.00000E+000	-2.00003E-001	0.00000E+000	8	...........	1467.07
	502	5.03	-2.03828E-001	2.80173E-005	0.00000E+000	-2.04003E-001	0.00000E+000	8	...........	1467.07
	504	5.05	-2.07823E-001	1.40804E-005	0.00000E+000	-2.08002E-001	0.00000E+000	8	...........	1467.07
	506	5.07	-2.11842E-001	-6.03552E-007	0.00000E+000	-2.12002E-001	0.00000E+000	7	.....h.....	1467.07
	508	5.09	-2.15805E-001	-1.09298E-005	0.00000E+000	-2.16001E-001	0.00000E+000	7	....ih..i..	1467.07
	510	5.11	-2.19834E-001	-3.84014E-005	0.00000E+000	-2.20001E-001	0.00000E+000	8	...........	1467.07
	512	5.13	-2.23823E-001	-6.03449E-005	0.00000E+000	-2.24000E-001	0.00000E+000	8	...........	1467.07
	514	5.15	-2.27799E-001	-8.49722E-005	0.00000E+000	-2.28000E-001	0.00000E+000	8	...........	1467.07
	516	5.17	-2.31842E-001	-1.12525E-004	0.00000E+000	-2.32000E-001	0.00000E+000	9	...........	1467.07
	518	5.19	-2.35827E-001	-1.43813E-004	0.00000E+000	-2.35999E-001	0.00000E+000	9	...........	1467.07
	520	5.21	-2.39823E-001	-1.79052E-004	0.00000E+000	-2.39999E-001	0.00000E+000	9	...........	1467.07
	522	5.23	-2.43821E-001	-2.18426E-004	0.00000E+000	-2.43998E-001	0.00000E+000	9	...........	1467.07
	524	5.25	-2.47804E-001	-2.62409E-004	0.00000E+000	-2.47998E-001	0.00000E+000	9	...........	1467.07
	526	5.27	-2.51805E-001	-3.11269E-004	0.00000E+000	-2.51998E-001	0.00000E+000	9	...........	1467.07
	528	5.29	-2.55798E-001	-3.65200E-004	0.00000E+000	-2.55997E-001	0.00000E+000	9	...........	1467.07
	530	5.31	-2.59839E-001	-4.24354E-004	0.00000E+000	-2.59997E-001	0.00000E+000	9	...........	1467.07
	532	5.33	-2.63838E-001	-4.89078E-004	0.00000E+000	-2.63996E-001	0.00000E+000	9	...........	1467.07
	534	5.35	-2.67830E-001	-5.59039E-004	0.00000E+000	-2.67996E-001	0.00000E+000	9	...........	1467.07
	536	5.37	-2.71829E-001	-6.34472E-004	0.00000E+000	-2.71996E-001	0.00000E+000	9	...........	1467.07
	538	5.39	-2.75823E-001	-7.15214E-004	0.00000E+000	-2.75995E-001	0.00000E+000	9	...........	1467.07
	540	5.41	-2.79836E-001	-8.00742E-004	0.00000E+000	-2.79995E-001	0.00000E+000	9	...........	1467.07
	542	5.43	-2.83846E-001	-8.91258E-004	0.00000E+000	-2.83994E-001	0.00000E+000	9	...........	1467.07
	544	5.45	-2.87857E-001	-9.84658E-004	0.00000E+000	-2.87994E-001	0.00000E+000	10	...........	1467.07
	546	5.47	-2.91850E-001	-1.08405E-003	0.00000E+000	-2.91994E-001	0.00000E+000	10	...........	1467.07
	548	5.49	-2.95877E-001	-1.18754E-003	0.00000E+000	-2.96006E-001	0.00000E+000	10	...........	1467.07
	550	5.51	-2.99863E-001	-1.29403E-003	0.00000E+000	-3.00005E-001	0.00000E+000	10	...........	1467.07
CURVE2	TABLE
	Pt	T	Vf	Im	Vu	Sig	Ach	IERange	Over	Temp
	#	s	V vs. Ref.	A	V	V	V	#	bits	deg C
	551	5.52	-2.97891E-001	-1.23320E-003	0.00000E+000	-2.98005E-001	0.00000E+000	10	...........	1467.07
	553	5.54	-2.93843E-001	-1.12021E-003	0.00000E+000	-2.94006E-001	0.00000E+000	10	...........	1467.07
	555	5.56	-2.89842E-001	-1.01279E-003	0.00000E+000	-2.90006E-001	0.00000E+000	10	...........	1467.07
	557	5.58	-2.85850E-001	-9.09777E-004	0.00000E+000	-2.85994E-001	0.00000E+000	10	...........	1467.07
	559	5.6	-2.81838E-001	-8.12198E-004	0.00000E+000	-2.81995E-001	0.00000E+000	10	...........	1467.07
	561	5.62	-2.77821E-001	-7.21055E-004	0.00000E+000	-2.77995E-001	0.00000E+000	9	...........	1467.07
	563	5.64	-2.73841E-001	-6.33501E-004	0.00000E+000	-2.73995E-001	0.00000E+000	9	...........	1467.07
	565	5.66	-2.69836E-001	-5.50979E-004	0.00000E+000	-2.69996E-001	0.00000E+000	9	...........	1467.07
	567	5.68	-2.65832E-001	-4.73679E-004	0.00000E+000	-2.65996E-001	0.00000E+000	9	...........	1467.07
	569	5.7	-2.61833E-001	-4.01760E-004	0.00000E+000	-2.61997E-001	0.00000E+000	9	...........	1467.07
	571	5.72	-2.57836E-001	-3.35151E-004	0.00000E+000	-2.57997E-001	0.00000E+000	9	...........	1467.07
	573	5.74	-2.53805E-001	-2.73739E-004	0.00000E+000	-2.53997E-001	0.00000E+000	9	...........	1467.07
	575	5.76	-2.49818E-001	-2.17500E-004	0.00000E+000	-2.49998E-001	0.00000E+000	9	...........	1467.07
	577	5.78	-2.45809E-001	-1.66194E-004	0.00000E+000	-2.45998E-001	0.00000E+000	9	...........	1467.07
	579	5.8	-2.41808E-001	-1.19586E-004	0.00000E+000	-2.41999E-001	0.00000E+000	9	...........	1467.07
	581	5.82	-2.37812E-001	-7.75818E-005	0.00000E+000	-2.37999E-001	0.00000E+000	9	...........	1467.07
	583	5.84	-2.33822E-001	-3.98240E-005	0.00000E+000	-2.33999E-001	0.00000E+000	8	...........	1467.07
	585	5.86	-2.29802E-001	-5.81902E-006	0.00000E+000	-2.30000E-001	0.00000E+000	8	...........	1467.07
	587	5.88	-2.25834E-001	1.09367E-005	0.00000E+000	-2.26000E-001	0.00000E+000	7	....ih..i..	1467.07
	589	5.9	-2.21816E-001	5.19148E-005	0.00000E+000	-2.22001E-001	0.00000E+000	8	...........	1467.07
	591	5.92	-2.17843E-001	7.62332E-005	0.00000E+000	-2.18001E-001	0.00000E+000	8	...........	1467.07
	593	5.94	-2.13817E-001	9.80596E-005	0.00000E+000	-2.14002E-001	0.00000E+000	8	.....h.....	1467.07
	595	5.96	-2.09820E-001	1.17759E-004	0.00000E+000	-2.10002E-001	0.00000E+000	9	...........	1467.07
	597	5.98	-2.05815E-001	1.35162E-004	0.00000E+000	-2.06002E-001	0.00000E+000	9	...........	1467.07
	599	6	-2.01820E-001	1.50775E-004	0.00000E+000	-2.02003E-001	0.00000E+000	9	...........	1467.07
	601	6.02	-1.97825E-001	1.64801E-004	0.00000E+000	-1.98003E-001	0.00000E+000	9	...........	1467.07
	603	6.04	-1.93829E-001	1.77480E-004	0.00000E+000	-1.94004E-001	0.00000E+000	9	...........	1467.07
	605	6.06	-1.89804E-001	1.88942E-004	0.00000E+000	-1.90004E-001	0.00000E+000	9	...........	1467.07
	607	6.08	-1.85818E-001	1.99360E-004	0.00000E+000	-1.86004E-001	0.00000E+000	9	...........	1467.07
	609	6.1	-1.81825E-001	2.08834E-004	0.00000E+000	-1.82005E-001	0.00000E+000	9	...........	1467.07
	611	6.12	-1.77795E-001	2.17536E-004	0.00000E+000	-1.78005E-001	0.00000E+000	9	...........	1467.07
	613	6.14	-1.73816E-001	2.25538E-004	0.00000E+000	-1.74006E-001	0.00000E+000	9	...........	1467.07
	615	6.16	-1.69823E-001	2.33044E-004	0.00000E+000	-1.70006E-001	0.00000E+000	9	...........	1467.07
	617	6.18	-1.65802E-001	2.40037E-004	0.00000E+000	-1.66006E-001	0.00000E+000	9	...........	1467.07
	619	6.2	-1.61793E-001	2.46658E-004	0.00000E+000	-1.61994E-001	0.00000E+000	9	...........	1467.07
	621	6.22	-1.57788E-001	2.52765E-004	0.00000E+000	-1.57995E-001	0.00000E+000	9	...........	1467.07
	623	6.24	-1.53798E-001	2.58594E-004	0.00000E+000	-1.53995E-001	0.00000E+000	9	...........	1467.07
	625	6.26	-1.49800E-001	2.64257E-004	0.00000E+000	-1.49996E-001	0.00000E+000	9	...........	1467.07
	627	6.28	-1.45801E-001	2.69622E-004	0.00000E+000	-1.45996E-001	0.00000E+000	9	...........	1467.07
	629	6.3	-1.41799E-001	2.74818E-004	0.00000E+000	-1.41996E-001	0.00000E+000	9	...........	1467.07
	631	6.32	-1.37800E-001	2.79808E-004	0.00000E+000	-1.37997E-001	0.00000E+000	9	...........	1467.07
	633	6.34	-1.33802E-001	2.84714E-004	0.00000E+000	-1.33997E-001	0.00000E+000	9	...........	1467.07
	635	6.36	-1.29803E-001	2.89418E-004	0.00000E+000	-1.29998E-001	0.00000E+000	9	...........	1467.07
	637	6.38	-1.25794E-001	2.94046E-004	0.00000E+000	-1.25998E-001	0.00000E+000	9	...........	1467.07
	639	6.4	-1.21795E-001	2.98454E-004	0.00000E+000	-1.21998E-001	0.00000E+000	9	...........	1467.07
	641	6.42	-1.17788E-001	3.02879E-004	0.00000E+000	-1.17999E-001	0.00000E+000	9	...........	1467.07
	643	6.44	-1.13798E-001	3.07253E-004	0.00000E+000	-1.13999E-001	0.00000E+000	9	...........	1467.07
	645	6.46	-1.09781E-001	3.11444E-004	0.00000E+000	-1.10000E-001	0.00000E+000	9	...........	1467.07
	647	6.48	-1.05789E-001	3.15754E-004	0.00000E+000	-1.06000E-001	0.00000E+000	9	...........	1467.07
	649	6.5	-1.01787E-001	3.19902E-004	0.00000E+000	-1.02000E-001	0.00000E+000	9	...........	1467.07
	651	6.52	-9.77815E-002	3.24079E-004	0.00000E+000	-9.80008E-002	0.00000E+000	9	...........	1467.07
	653	6.54	-9.37814E-002	3.28233E-004	0.00000E+000	-9.40012E-002	0.00000E+000	9	...........	1467.07
	655	6.56	-8.97897E-002	3.32292E-004	0.00000E+000	-9.00016E-002	0.00000E+000	9	...........	1467.07
	657	6.58	-8.57830E-002	3.36400E-004	0.00000E+000	-8.60020E-002	0.00000E+000	9	...........	1467.07
	659	6.6	-8.17721E-002	3.40451E-004	0.00000E+000	-8.20024E-002	0.00000E+000	9	...........	1467.07
	661	6.62	-7.77770E-002	3.44537E-004	0.00000E+000	-7.80028E-002	0.00000E+000	9	...........	1467.07
	663	6.64	-7.37620E-002	3.48575E-004	0.00000E+000	-7.40032E-002	0.00000E+000	9	...........	1467.07
	665	6.66	-6.97528E-002	3.52582E-004	0.00000E+000	-7.00037E-002	0.00000E+000	9	...........	1467.07
	667	6.68	-6.57752E-002	3.56723E-004	0.00000E+000	-6.60041E-002	0.00000E+000	9	...........	1467.07
	669	6.7	-6.17760E-002	3.60661E-004	0.00000E+000	-6.20045E-002	0.00000E+000	9	...........	1467.07
	671	6.72	-5.77876E-002	3.64766E-004	0.00000E+000	-5.80049E-002	0.00000E+000	9	...........	1467.07
	673	6.74	-5.37609E-002	3.68788E-004	0.00000E+000	-5.40053E-002	0.00000E+000	9	...........	1467.07
	675	6.76	-4.97617E-002	3.72809E-004	0.00000E+000	-5.00057E-002	0.00000E+000	9	...........	1467.07
	677	6.78	-4.57624E-002	3.76816E-004	0.00000E+000	-4.60061E-002	0.00000E+000	9	...........	1467.07
	679	6.8	-4.17691E-002	3.80886E-004	0.00000E+000	-4.20065E-002	0.00000E+000	9	...........	1467.07
	681	6.82	-3.77473E-002	3.85035E-004	0.00000E+000	-3.79944E-002	0.00000E+000	9	...........	1467.16
	683	6.84	-3.37548E-002	3.89009E-004	0.00000E+000	-3.39948E-002	0.00000E+000	9	...........	1467.16
	685	6.86	-2.97556E-002	3.93155E-004	0.00000E+000	-2.99952E-002	0.00000E+000	9	...........	1467.16
	687	6.88	-2.57563E-002	3.97252E-004	0.00000E+000	-2.59956E-002	0.00000E+000	9	...........	1467.16
	689	6.9	-2.17455E-002	4.01433E-004	0.00000E+000	-2.19960E-002	0.00000E+000	9	...........	1467.16
	691	6.92	-1.77504E-002	4.05769E-004	0.00000E+000	-1.79964E-002	0.00000E+000	9	...........	1467.16
	693	6.94	-1.37420E-002	4.10047E-004	0.00000E+000	-1.39969E-002	0.00000E+000	9	...........	1467.16
	695	6.96	-9.74613E-003	4.14623E-004	0.00000E+000	-9.99726E-003	0.00000E+000	9	...........	1467.16
	697	6.98	-5.74024E-003	4.19202E-004	0.00000E+000	-5.99767E-003	0.00000E+000	9	...........	1467.16
	699	7	-1.75770E-003	4.24074E-004	0.00000E+000	-1.99808E-003	0.00000E+000	9	...........	1467.16
	701	7.02	2.27154E-003	4.29068E-004	0.00000E+000	2.00152E-003	0.00000E+000	9	...........	1467.16
	703	7.04	6.25992E-003	4.34492E-004	0.00000E+000	6.00111E-003	0.00000E+000	9	...........	1467.16
	705	7.06	1.02616E-002	4.40230E-004	0.00000E+000	1.00007E-002	0.00000E+000	9	...........	1467.16
	707	7.08	1.42600E-002	4.46336E-004	0.00000E+000	1.40003E-002	0.00000E+000	9	...........	1467.16
	709	7.1	1.82601E-002	4.52913E-004	0.00000E+000	1.79999E-002	0.00000E+000	9	...........	1467.16
	711	7.12	2.22626E-002	4.60052E-004	0.00000E+000	2.19995E-002	0.00000E+000	9	...........	1467.16
	713	7.14	2.62827E-002	4.67731E-004	0.00000E+000	2.59991E-002	0.00000E+000	9	...........	1467.16
	715	7.16	3.02536E-002	4.76188E-004	0.00000E+000	2.99987E-002	0.00000E+000	9	...........	1467.16
	717	7.18	3.42820E-002	4.85295E-004	0.00000E+000	3.39983E-002	0.00000E+000	9	...........	1467.16
	719	7.2	3.82520E-002	4.95217E-004	0.00000E+000	3.79979E-002	0.00000E+000	9	...........	1467.16
	721	7.22	4.22879E-002	5.05969E-004	0.00000E+000	4.19974E-002	0.00000E+000	9	...........	1467.16
	723	7.24	4.62946E-002	5.17611E-004	0.00000E+000	4.59970E-002	0.00000E+000	9	...........	1467.16
	725	7.26	5.02947E-002	5.29926E-004	0.00000E+000	4.99966E-002	0.00000E+000	9	...........	1467.16
	727	7.28	5.42906E-002	5.43312E-004	0.00000E+000	5.39962E-002	0.00000E+000	9	...........	1467.16
	729	7.3	5.83006E-002	5.57453E-004	0.00000E+000	5.79958E-002	0.00000E+000	9	...........	1467.16
	731	7.32	6.22932E-002	5.72274E-004	0.00000E+000	6.19954E-002	0.00000E+000	9	...........	1467.16
	733	7.34	6.63074E-002	5.87808E-004	0.00000E+000	6.59950E-002	0.00000E+000	9	...........	1467.16
	735	7.36	7.02958E-002	6.03743E-004	0.00000E+000	6.99946E-002	0.00000E+000	9	...........	1467.16
	737	7.38	7.42950E-002	6.19734E-004	0.00000E+000	7.39942E-002	0.00000E+000	9	...........	1467.16
	739	7.4	7.83134E-002	6.35389E-004	0.00000E+000	7.79938E-002	0.00000E+000	9	...........	1467.16
	741	7.42	8.23059E-002	6.50034E-004	0.00000E+000	8.19934E-002	0.00000E+000	9	...........	1467.16
	743	7.44	8.63135E-002	6.63509E-004	0.00000E+000	8.60055E-002	0.00000E+000	9	...........	1467.16
	745	7.46	9.03061E-002	6.74560E-004	0.00000E+000	9.00051E-002	0.00000E+000	9	...........	1467.16
	747	7.48	9.42986E-002	6.83119E-004	0.00000E+000	9.40047E-002	0.00000E+000	9	...........	1467.16
	749	7.5	9.83045E-002	6.88737E-004	0.00000E+000	9.80043E-002	0.00000E+000	9	...........	1467.16
	751	7.52	1.02305E-001	6.91177E-004	0.00000E+000	1.02004E-001	0.00000E+000	9	...........	1467.16
	753	7.54	1.06319E-001	6.90266E-004	0.00000E+000	1.06003E-001	0.00000E+000	9	...........	1467.16
	755	7.56	1.10311E-001	6.85788E-004	0.00000E+000	1.10003E-001	0.00000E+000	9	...........	1467.16
	757	7.58	1.14310E-001	6.76800E-004	0.00000E+000	1.14003E-001	0.00000E+000	9	...........	1467.16
	759	7.6	1.18314E-001	6.62093E-004	0.00000E+000	1.18002E-001	0.00000E+000	9	...........	1467.16
	761	7.62	1.22301E-001	6.38771E-004	0.00000E+000	1.22002E-001	0.00000E+000	9	...........	1467.16
	763	7.64	1.26302E-001	6.10401E-004	0.00000E+000	1.26001E-001	0.00000E+000	9	...........	1467.16
	765	7.66	1.30344E-001	5.80658E-004	0.00000E+000	1.30001E-001	0.00000E+000	9	...........	1467.16
[...]
	34769	347.7	-1.37775E-001	-3.74135E-005	0.00000E+000	-1.37997E-001	0.00000E+000	8	...........	1467.25
	34771	347.72	-1.41797E-001	-3.74751E-005	0.00000E+000	-1.41996E-001	0.00000E+000	8	...........	1467.25
	34773	347.74	-1.45790E-001	-3.74207E-005	0.00000E+000	-1.45996E-001	0.00000E+000	8	...........	1467.25
	34775	347.76	-1.49783E-001	-3.75546E-005	0.00000E+000	-1.49996E-001	0.00000E+000	8	...........	1467.25
	34777	347.78	-1.53797E-001	-3.76941E-005	0.00000E+000	-1.53995E-001	0.00000E+000	8	...........	1467.25
	34779	347.8	-1.57791E-001	-3.78453E-005	0.00000E+000	-1.57995E-001	0.00000E+000	8	...........	1467.25
	34781	347.82	-1.61786E-001	-3.82869E-005	0.00000E+000	-1.61994E-001	0.00000E+000	8	...........	1467.34
	34783	347.84	-1.65796E-001	-3.87858E-005	0.00000E+000	-1.66006E-001	0.00000E+000	8	...........	1467.34
	34785	347.86	-1.69803E-001	-3.94489E-005	0.00000E+000	-1.70006E-001	0.00000E+000	8	...........	1467.34
	34787	347.88	-1.73814E-001	-4.03728E-005	0.00000E+000	-1.74006E-001	0.00000E+000	8	...........	1467.34
	34789	347.9	-1.77798E-001	-4.16782E-005	0.00000E+000	-1.78005E-001	0.00000E+000	8	...........	1467.34
	34791	347.92	-1.81816E-001	-4.31741E-005	0.00000E+000	-1.82005E-001	0.00000E+000	8	...........	1467.34
	34793	347.94	-1.85825E-001	-4.52535E-005	0.00000E+000	-1.86004E-001	0.00000E+000	8	...........	1467.34
	34795	347.96	-1.89809E-001	-4.79875E-005	0.00000E+000	-1.90004E-001	0.00000E+000	8	...........	1467.34
	34797	347.98	-1.93831E-001	-5.13923E-005	0.00000E+000	-1.94004E-001	0.00000E+000	8	...........	1467.34
	34799	348	-1.97826E-001	-5.60293E-005	0.00000E+000	-1.98003E-001	0.00000E+000	8	...........	1467.34
	34801	348.02	-2.01829E-001	-6.19382E-005	0.00000E+000	-2.02003E-001	0.00000E+000	8	...........	1467.34
	34803	348.04	-2.05845E-001	-6.94935E-005	0.00000E+000	-2.06002E-001	0.00000E+000	8	...........	1467.34
	34805	348.06	-2.09844E-001	-7.89908E-005	0.00000E+000	-2.10002E-001	0.00000E+000	8	...........	1467.34
	34807	348.08	-2.13816E-001	-9.11688E-005	0.00000E+000	-2.14002E-001	0.00000E+000	8	...........	1467.34
	34809	348.1	-2.17837E-001	-1.06057E-004	0.00000E+000	-2.18001E-001	0.00000E+000	9	...........	1467.34
	34811	348.12	-2.21829E-001	-1.24991E-004	0.00000E+000	-2.22001E-001	0.00000E+000	9	...........	1467.34
	34813	348.14	-2.25837E-001	-1.48209E-004	0.00000E+000	-2.26000E-001	0.00000E+000	9	...........	1467.34
	34815	348.16	-2.29827E-001	-1.76727E-004	0.00000E+000	-2.30000E-001	0.00000E+000	9	...........	1467.34
	34817	348.18	-2.33840E-001	-2.10894E-004	0.00000E+000	-2.33999E-001	0.00000E+000	9	...........	1467.34
	34819	348.2	-2.37817E-001	-2.51874E-004	0.00000E+000	-2.37999E-001	0.00000E+000	9	...........	1467.34
	34821	348.22	-2.41817E-001	-3.00225E-004	0.00000E+000	-2.41999E-001	0.00000E+000	9	...........	1467.34
	34823	348.24	-2.45820E-001	-3.56793E-004	0.00000E+000	-2.45998E-001	0.00000E+000	9	...........	1467.34
	34825	348.26	-2.49828E-001	-4.22236E-004	0.00000E+000	-2.49998E-001	0.00000E+000	9	...........	1467.34
	34827	348.28	-2.53815E-001	-4.97039E-004	0.00000E+000	-2.53997E-001	0.00000E+000	9	...........	1467.34
	34829	348.3	-2.57822E-001	-5.81796E-004	0.00000E+000	-2.57997E-001	0.00000E+000	9	...........	1467.34
	34831	348.32	-2.61826E-001	-6.76964E-004	0.00000E+000	-2.61997E-001	0.00000E+000	9	...........	1467.34
	34833	348.34	-2.65818E-001	-7.82518E-004	0.00000E+000	-2.65996E-001	0.00000E+000	9	...........	1467.34
	34835	348.36	-2.69830E-001	-8.98673E-004	0.00000E+000	-2.69996E-001	0.00000E+000	9	...........	1467.34
	34837	348.38	-2.73821E-001	-1.02413E-003	0.00000E+000	-2.73995E-001	0.00000E+000	10	...........	1467.34
	34839	348.4	-2.77814E-001	-1.16086E-003	0.00000E+000	-2.77995E-001	0.00000E+000	10	...........	1467.34
	34841	348.42	-2.81833E-001	-1.30736E-003	0.00000E+000	-2.81995E-001	0.00000E+000	10	...........	1467.34
	34843	348.44	-2.85824E-001	-1.46324E-003	0.00000E+000	-2.85994E-001	0.00000E+000	10	...........	1467.34
	34845	348.46	-2.89827E-001	-1.62845E-003	0.00000E+000	-2.90006E-001	0.00000E+000	10	...........	1467.34
	34847	348.48	-2.93821E-001	-1.80126E-003	0.00000E+000	-2.94006E-001	0.00000E+000	10	...........	1467.34
	34849	348.5	-2.97855E-001	-1.98188E-003	0.00000E+000	-2.98005E-001	0.00000E+000	10	...........	1467.34
	34850	348.51	-2.99832E-001	-2.07351E-003	0.00000E+000	-3.00005E-001	0.00000E+000	10	...........	1467.34
CURVE51	TABLE
	Pt	T	Vf	Im	Vu	Sig	Ach	IERange	Over	Temp
	#	s	V vs. Ref.	A	V	V	V	#	bits	deg C
	34851	348.52	-2.97850E-001	-1.97560E-003	0.00000E+000	-2.98005E-001	0.00000E+000	10	...........	1467.34
	34852	348.53	-2.95860E-001	-1.87808E-003	0.00000E+000	-2.96006E-001	0.00000E+000	10	...........	1467.34
	34853	348.54	-2.93837E-001	-1.78467E-003	0.00000E+000	-2.94006E-001	0.00000E+000	10	...........	1467.34
	34854	348.55	-2.91842E-001	-1.69113E-003	0.00000E+000	-2.92006E-001	0.00000E+000	10	...........	1467.34
	34855	348.56	-2.89840E-001	-1.60190E-003	0.00000E+000	-2.90006E-001	0.00000E+000	10	...........	1467.34
	34856	348.57	-2.87836E-001	-1.51172E-003	0.00000E+000	-2.87994E-001	0.00000E+000	10	...........	1467.34
	34857	348.58	-2.85837E-001	-1.42658E-003	0.00000E+000	-2.85994E-001	0.00000E+000	10	...........	1467.34
	34858	348.59	-2.83839E-001	-1.34146E-003	0.00000E+000	-2.83994E-001	0.00000E+000	10	...........	1467.34
	34859	348.6	-2.81837E-001	-1.26074E-003	0.00000E+000	-2.81995E-001	0.00000E+000	10	...........	1467.34
	34860	348.61	-2.79816E-001	-1.17990E-003	0.00000E+000	-2.79995E-001	0.00000E+000	10	...........	1467.34
	34861	348.62	-2.77825E-001	-1.10371E-003	0.00000E+000	-2.77995E-001	0.00000E+000	10	...........	1467.34
	34862	348.63	-2.75835E-001	-1.02777E-003	0.00000E+000	-2.75995E-001	0.00000E+000	10	...........	1467.34
	34863	348.64	-2.73832E-001	-9.56172E-004	0.00000E+000	-2.73995E-001	0.00000E+000	10	...........	1467.34
	34864	348.65	-2.71835E-001	-8.85077E-004	0.00000E+000	-2.71996E-001	0.00000E+000	10	...........	1467.34
	34865	348.66	-2.69846E-001	-8.18490E-004	0.00000E+000	-2.69996E-001	0.00000E+000	10	...........	1467.34
	34866	348.67	-2.67831E-001	-7.52285E-004	0.00000E+000	-2.67996E-001	0.00000E+000	10	...........	1467.34
	34867	348.68	-2.65855E-001	-6.91956E-004	0.00000E+000	-2.65996E-001	0.00000E+000	9	...........	1467.34
	34868	348.69	-2.63844E-001	-6.30997E-004	0.00000E+000	-2.63996E-001	0.00000E+000	9	...........	1467.34
	34869	348.7	-2.61833E-001	-5.74247E-004	0.00000E+000	-2.61997E-001	0.00000E+000	9	...........	1467.34
	34870	348.71	-2.59829E-001	-5.18146E-004	0.00000E+000	-2.59997E-001	0.00000E+000	9	...........	1467.34
	34871	348.72	-2.57834E-001	-4.66305E-004	0.00000E+000	-2.57997E-001	0.00000E+000	9	...........	1467.34
	34872	348.73	-2.55825E-001	-4.15414E-004	0.00000E+000	-2.55997E-001	0.00000E+000	9	...........	1467.34
	34873	348.74	-2.53807E-001	-3.68361E-004	0.00000E+000	-2.53997E-001	0.00000E+000	9	...........	1467.34
	34874	348.75	-2.51815E-001	-3.22167E-004	0.00000E+000	-2.51998E-001	0.00000E+000	9	...........	1467.34
	34875	348.76	-2.49817E-001	-2.79797E-004	0.00000E+000	-2.49998E-001	0.00000E+000	9	...........	1467.34
	34876	348.77	-2.47812E-001	-2.38168E-004	0.00000E+000	-2.47998E-001	0.00000E+000	9	...........	1467.34
	34877	348.78	-2.45816E-001	-2.00296E-004	0.00000E+000	-2.45998E-001	0.00000E+000	9	...........	1467.34
	34878	348.79	-2.43825E-001	-1.63231E-004	0.00000E+000	-2.43998E-001	0.00000E+000	9	...........	1467.34
	34879	348.8	-2.41808E-001	-1.29385E-004	0.00000E+000	-2.41999E-001	0.00000E+000	9	...........	1467.34
	34880	348.81	-2.39809E-001	-9.64079E-005	0.00000E+000	-2.39999E-001	0.00000E+000	9	...........	1467.18
	34881	348.82	-2.37817E-001	-6.66353E-005	0.00000E+000	-2.37999E-001	0.00000E+000	9	...........	1467.16
	34882	348.83	-2.35812E-001	-3.76435E-005	0.00000E+000	-2.35999E-001	0.00000E+000	8	...........	1467.16
	34883	348.84	-2.33821E-001	-1.14266E-005	0.00000E+000	-2.33999E-001	0.00000E+000	8	...........	1467.16
	34884	348.85	-2.31837E-001	1.42751E-005	0.00000E+000	-2.32000E-001	0.00000E+000	8	...........	1467.16
	34885	348.86	-2.29810E-001	3.71658E-005	0.00000E+000	-2.30000E-001	0.00000E+000	8	...........	1467.16
	34886	348.87	-2.27816E-001	5.97916E-005	0.00000E+000	-2.28000E-001	0.00000E+000	8	...........	1467.16
	34887	348.88	-2.25831E-001	7.97517E-005	0.00000E+000	-2.26000E-001	0.00000E+000	8	...........	1467.16
	34888	348.89	-2.23847E-001	9.94315E-005	0.00000E+000	-2.24000E-001	0.00000E+000	8	.....h.....	1467.16
	34889	348.9	-2.21814E-001	1.17214E-004	0.00000E+000	-2.22001E-001	0.00000E+000	9	...........	1467.16
	34890	348.91	-2.19836E-001	1.34528E-004	0.00000E+000	-2.20001E-001	0.00000E+000	9	...........	1467.16
	34891	348.92	-2.17856E-001	1.49422E-004	0.00000E+000	-2.18001E-001	0.00000E+000	9	...........	1467.16
	34892	348.93	-2.15819E-001	1.64479E-004	0.00000E+000	-2.16001E-001	0.00000E+000	9	...........	1467.16
	34893	348.94	-2.13817E-001	1.77394E-004	0.00000E+000	-2.14002E-001	0.00000E+000	9	...........	1467.16
	34894	348.95	-2.11842E-001	1.90379E-004	0.00000E+000	-2.12002E-001	0.00000E+000	9	...........	1467.16
	34895	348.96	-2.09824E-001	2.01348E-004	0.00000E+000	-2.10002E-001	0.00000E+000	9	...........	1467.16
	34896	348.97	-2.07831E-001	2.12658E-004	0.00000E+000	-2.08002E-001	0.00000E+000	9	...........	1467.16
	34897	348.98	-2.05825E-001	2.21841E-004	0.00000E+000	-2.06002E-001	0.00000E+000	9	...........	1467.16
	34898	348.99	-2.03820E-001	2.31748E-004	0.00000E+000	-2.04003E-001	0.00000E+000	9	...........	1467.16
	34899	349	-2.01822E-001	2.39541E-004	0.00000E+000	-2.02003E-001	0.00000E+000	9	...........	1467.16
	34900	349.01	-1.99804E-001	2.47792E-004	0.00000E+000	-2.00003E-001	0.00000E+000	9	...........	1467.16
	34901	349.02	-1.97811E-001	2.54356E-004	0.00000E+000	-1.98003E-001	0.00000E+000	9	...........	1467.16
	34902	349.03	-1.95832E-001	2.61613E-004	0.00000E+000	-1.96003E-001	0.00000E+000	9	...........	1467.16
	34903	349.04	-1.93829E-001	2.66932E-004	0.00000E+000	-1.94004E-001	0.00000E+000	9	...........	1467.16
	34904	349.05	-1.91822E-001	2.73144E-004	0.00000E+000	-1.92004E-001	0.00000E+000	9	...........	1467.16
	34905	349.06	-1.89814E-001	2.77485E-004	0.00000E+000	-1.90004E-001	0.00000E+000	9	...........	1467.16
	34906	349.07	-1.87829E-001	2.82645E-004	0.00000E+000	-1.88004E-001	0.00000E+000	9	...........	1467.16
	34907	349.08	-1.85818E-001	2.86231E-004	0.00000E+000	-1.86004E-001	0.00000E+000	9	...........	1467.16
	34908	349.09	-1.83820E-001	2.90458E-004	0.00000E+000	-1.84005E-001	0.00000E+000	9	...........	1467.16
	34909	349.1	-1.81808E-001	2.93183E-004	0.00000E+000	-1.82005E-001	0.00000E+000	9	...........	1467.16
	34910	349.11	-1.79813E-001	2.96871E-004	0.00000E+000	-1.80005E-001	0.00000E+000	9	...........	1467.16
	34911	349.12	-1.77799E-001	2.98998E-004	0.00000E+000	-1.78005E-001	0.00000E+000	9	...........	1467.16
	34912	349.13	-1.75794E-001	3.01992E-004	0.00000E+000	-1.76005E-001	0.00000E+000	9	...........	1467.16
	34913	349.14	-1.73814E-001	3.03440E-004	0.00000E+000	-1.74006E-001	0.00000E+000	9	...........	1467.16
	34914	349.15	-1.71801E-001	3.05980E-004	0.00000E+000	-1.72006E-001	0.00000E+000	9	...........	1467.16
	34915	349.16	-1.69800E-001	3.06916E-004	0.00000E+000	-1.70006E-001	0.00000E+000	9	...........	1467.16
	34916	349.17	-1.67813E-001	3.08925E-004	0.00000E+000	-1.68006E-001	0.00000E+000	9	...........	1467.16
	34917	349.18	-1.65806E-001	3.09438E-004	0.00000E+000	-1.66006E-001	0.00000E+000	9	...........	1467.16
	34918	349.19	-1.63796E-001	3.11091E-004	0.00000E+000	-1.63994E-001	0.00000E+000	9	...........	1467.16
	34919	349.2	-1.61800E-001	3.11231E-004	0.00000E+000	-1.61994E-001	0.00000E+000	9	...........	1467.16
	34920	349.21	-1.59801E-001	3.12491E-004	0.00000E+000	-1.59994E-001	0.00000E+000	9	...........	1467.16
	34921	349.22	-1.57808E-001	3.12289E-004	0.00000E+000	-1.57995E-001	0.00000E+000	9	...........	1467.16
	34922	349.23	-1.55797E-001	3.13238E-004	0.00000E+000	-1.55995E-001	0.00000E+000	9	...........	1467.16
	34923	349.24	-1.53790E-001	3.12740E-004	0.00000E+000	-1.53995E-001	0.00000E+000	9	...........	1467.16
	34924	349.25	-1.51783E-001	3.13467E-004	0.00000E+000	-1.51995E-001	0.00000E+000	9	...........	1467.16
	34925	349.26	-1.49789E-001	3.12758E-004	0.00000E+000	-1.49996E-001	0.00000E+000	9	...........	1467.16
	34926	349.27	-1.47791E-001	3.13217E-004	0.00000E+000	-1.47996E-001	0.00000E+000	9	...........	1467.16
	34927	349.28	-1.45791E-001	3.12324E-004	0.00000E+000	-1.45996E-001	0.00000E+000	9	...........	1467.16
	34928	349.29	-1.43796E-001	3.12586E-004	0.00000E+000	-1.43996E-001	0.00000E+000	9	...........	1467.16
	34929	349.3	-1.41796E-001	3.11492E-004	0.00000E+000	-1.41996E-001	0.00000E+000	9	...........	1467.16
	34930	349.31	-1.39775E-001	3.11612E-004	0.00000E+000	-1.39997E-001	0.00000E+000	9	...........	1467.16
	34931	349.32	-1.37792E-001	3.10305E-004	0.00000E+000	-1.37997E-001	0.00000E+000	9	...........	1467.16
	34932	349.33	-1.35803E-001	3.10308E-004	0.00000E+000	-1.35997E-001	0.00000E+000	9	...........	1467.16
	34933	349.34	-1.33784E-001	3.08924E-004	0.00000E+000	-1.33997E-001	0.00000E+000	9	...........	1467.16
	34934	349.35	-1.31808E-001	3.08735E-004	0.00000E+000	-1.31997E-001	0.00000E+000	9	...........	1467.16
	34935	349.36	-1.29793E-001	3.07234E-004	0.00000E+000	-1.29998E-001	0.00000E+000	9	...........	1467.16
	34936	349.37	-1.27790E-001	3.07001E-004	0.00000E+000	-1.27998E-001	0.00000E+000	9	...........	1467.16
	34937	349.38	-1.25773E-001	3.05435E-004	0.00000E+000	-1.25998E-001	0.00000E+000	9	...........	1467.16
	34938	349.39	-1.23783E-001	3.05031E-004	0.00000E+000	-1.23998E-001	0.00000E+000	9	...........	1467.16
	34939	349.4	-1.21799E-001	3.03402E-004	0.00000E+000	-1.21998E-001	0.00000E+000	9	...........	1467.16
	34940	349.41	-1.19772E-001	3.03017E-004	0.00000E+000	-1.19999E-001	0.00000E+000	9	...........	1467.16
	34941	349.42	-1.17776E-001	3.01245E-004	0.00000E+000	-1.17999E-001	0.00000E+000	9	...........	1467.16
	34942	349.43	-1.15785E-001	3.00968E-004	0.00000E+000	-1.15999E-001	0.00000E+000	9	...........	1467.16
	34943	349.44	-1.13780E-001	2.99137E-004	0.00000E+000	-1.13999E-001	0.00000E+000	9	...........	1467.16
	34944	349.45	-1.11782E-001	2.98656E-004	0.00000E+000	-1.11999E-001	0.00000E+000	9	...........	1467.16
	34945	349.46	-1.09777E-001	2.96904E-004	0.00000E+000	-1.10000E-001	0.00000E+000	9	...........	1467.16
	34946	349.47	-1.07778E-001	2.96429E-004	0.00000E+000	-1.08000E-001	0.00000E+000	9	...........	1467.16
	34947	349.48	-1.05791E-001	2.94566E-004	0.00000E+000	-1.06000E-001	0.00000E+000	9	...........	1467.16
	34948	349.49	-1.03788E-001	2.94001E-004	0.00000E+000	-1.04000E-001	0.00000E+000	9	...........	1467.16
	34949	349.5	-1.01781E-001	2.92170E-004	0.00000E+000	-1.02000E-001	0.00000E+000	9	...........	1467.16
	34950	349.51	-9.97873E-002	2.91549E-004	0.00000E+000	-1.00001E-001	0.00000E+000	9	...........	1467.16
	34951	349.52	-9.77781E-002	2.89704E-004	0.00000E+000	-9.80008E-002	0.00000E+000	9	...........	1467.16
	34952	349.53	-9.57873E-002	2.89249E-004	0.00000E+000	-9.60010E-002	0.00000E+000	9	...........	1467.16
	34953	349.54	-9.37823E-002	2.87306E-004	0.00000E+000	-9.40012E-002	0.00000E+000	9	...........	1467.16
	34954	349.55	-9.17756E-002	2.86625E-004	0.00000E+000	-9.20014E-002	0.00000E+000	9	...........	1467.16
	34955	349.56	-8.97864E-002	2.84720E-004	0.00000E+000	-9.00016E-002	0.00000E+000	9	...........	1467.16
	34956	349.57	-8.77763E-002	2.84157E-004	0.00000E+000	-8.80018E-002	0.00000E+000	9	...........	1467.16
	34957	349.58	-8.57663E-002	2.82200E-004	0.00000E+000	-8.60020E-002	0.00000E+000	9	...........	1467.16
	34958	349.59	-8.37855E-002	2.81549E-004	0.00000E+000	-8.40022E-002	0.00000E+000	9	...........	1467.16
	34959	349.6	-8.17646E-002	2.79632E-004	0.00000E+000	-8.20024E-002	0.00000E+000	9	...........	1467.16
	34960	349.61	-7.97787E-002	2.78939E-004	0.00000E+000	-8.00026E-002	0.00000E+000	9	...........	1467.16
	34961	349.62	-7.77862E-002	2.76882E-004	0.00000E+000	-7.80028E-002	0.00000E+000	9	...........	1467.16
	34962	349.63	-7.57595E-002	2.76227E-004	0.00000E+000	-7.60030E-002	0.00000E+000	9	...........	1467.16
	34963	349.64	-7.37553E-002	2.74286E-004	0.00000E+000	-7.40032E-002	0.00000E+000	9	...........	1467.16
	34964	349.65	-7.17578E-002	2.73537E-004	0.00000E+000	-7.20035E-002	0.00000E+000	9	...........	1467.16
	34965	349.66	-6.97594E-002	2.71517E-004	0.00000E+000	-7.00037E-002	0.00000E+000	9	...........	1467.16
	34966	349.67	-6.77644E-002	2.70799E-004	0.00000E+000	-6.80039E-002	0.00000E+000	9	...........	1467.16
	34967	349.68	-6.57694E-002	2.68621E-004	0.00000E+000	-6.60041E-002	0.00000E+000	9	...........	1467.16
	34968	349.69	-6.37919E-002	2.67937E-004	0.00000E+000	-6.40043E-002	0.00000E+000	9	...........	1467.16
	34969	349.7	-6.17610E-002	2.65682E-004	0.00000E+000	-6.20045E-002	0.00000E+000	9	...........	1467.16
	34970	349.71	-5.97635E-002	2.64856E-004	0.00000E+000	-6.00047E-002	0.00000E+000	9	...........	1467.16
	34971	349.72	-5.77784E-002	2.62645E-004	0.00000E+000	-5.80049E-002	0.00000E+000	9	...........	1467.16
	34972	349.73	-5.57509E-002	2.61800E-004	0.00000E+000	-5.60051E-002	0.00000E+000	9	...........	1467.16
	34973	349.74	-5.37684E-002	2.59489E-004	0.00000E+000	-5.40053E-002	0.00000E+000	9	...........	1467.16
	34974	349.75	-5.17759E-002	2.58535E-004	0.00000E+000	-5.20055E-002	0.00000E+000	9	...........	1467.16
	34975	349.76	-4.97558E-002	2.56197E-004	0.00000E+000	-5.00057E-002	0.00000E+000	9	...........	1467.16
	34976	349.77	-4.77575E-002	2.55226E-004	0.00000E+000	-4.80059E-002	0.00000E+000	9	...........	1467.16
	34977	349.78	-4.57458E-002	2.52837E-004	0.00000E+000	-4.60061E-002	0.00000E+000	9	...........	1467.16
	34978	349.79	-4.37532E-002	2.51771E-004	0.00000E+000	-4.40063E-002	0.00000E+000	9	...........	1467.16
	34979	349.8	-4.17624E-002	2.49425E-004	0.00000E+000	-4.20065E-002	0.00000E+000	9	...........	1467.16
	34980	349.81	-3.97682E-002	2.48299E-004	0.00000E+000	-4.00067E-002	0.00000E+000	9	...........	1467.24
	34981	349.82	-3.77415E-002	2.45856E-004	0.00000E+000	-3.79944E-002	0.00000E+000	9	...........	1467.25
	34982	349.83	-3.57531E-002	2.44627E-004	0.00000E+000	-3.59946E-002	0.00000E+000	9	...........	1467.25
	34983	349.84	-3.37473E-002	2.42091E-004	0.00000E+000	-3.39948E-002	0.00000E+000	9	...........	1467.25
	34984	349.85	-3.17531E-002	2.40770E-004	0.00000E+000	-3.19950E-002	0.00000E+000	9	...........	1467.25
	34985	349.86	-2.97539E-002	2.38192E-004	0.00000E+000	-2.99952E-002	0.00000E+000	9	...........	1467.25
	34986	349.87	-2.77489E-002	2.36930E-004	0.00000E+000	-2.79954E-002	0.00000E+000	9	...........	1467.25
	34987	349.88	-2.57430E-002	2.34185E-004	0.00000E+000	-2.59956E-002	0.00000E+000	9	...........	1467.25
	34988	349.89	-2.37238E-002	2.32928E-004	0.00000E+000	-2.39958E-002	0.00000E+000	9	...........	1467.25
	34989	349.9	-2.17288E-002	2.30296E-004	0.00000E+000	-2.19960E-002	0.00000E+000	9	...........	1467.25
	34990	349.91	-1.97379E-002	2.28784E-004	0.00000E+000	-1.99962E-002	0.00000E+000	9	...........	1467.25
	34991	349.92	-1.77321E-002	2.26039E-004	0.00000E+000	-1.79964E-002	0.00000E+000	9	...........	1467.25
	34992	349.93	-1.57370E-002	2.24632E-004	0.00000E+000	-1.59967E-002	0.00000E+000	9	...........	1467.25
	34993	349.94	-1.37470E-002	2.21756E-004	0.00000E+000	-1.39969E-002	0.00000E+000	9	...........	1467.25
	34994	349.95	-1.17220E-002	2.20319E-004	0.00000E+000	-1.19971E-002	0.00000E+000	9	...........	1467.25
	34995	349.96	-9.73362E-003	2.17469E-004	0.00000E+000	-9.99726E-003	0.00000E+000	9	...........	1467.25
	34996	349.97	-7.73276E-003	2.15978E-004	0.00000E+000	-7.99746E-003	0.00000E+000	9	...........	1467.25
	34997	349.98	-5.73106E-003	2.13169E-004	0.00000E+000	-5.99767E-003	0.00000E+000	9	...........	1467.25
	34998	349.99	-3.73604E-003	2.11704E-004	0.00000E+000	-3.99787E-003	0.00000E+000	9	...........	1467.25
	34999	350	-1.73768E-003	2.08815E-004	0.00000E+000	-1.99808E-003	0.00000E+000	9	...........	1467.25
	35000	350.01	2.96538E-004	2.07297E-004	0.00000E+000	1.72108E-006	0.00000E+000	9	...........	1467.25