File: input/MYCIE_#1.DTA
EXPLAIN
TAG	CV
TITLE	LABEL	MYCIE	Test Identifier
DATE	LABEL	21.8.2024	Date
TIME	LABEL	14:43:33	Time
NOTES	NOTES	1	Notes...

PSTAT	PSTAT	IFC1010-36105	Potentiostat
VINIT	POTEN	0.00000E+000	F	Initial E (V)
VLIMIT1	POTEN	4.00000E-001	F	Scan Limit 1 (V)
VLIMIT2	POTEN	-3.00000E-001	F	Scan Limit 2 (V)
VFINAL	POTEN	0.00000E+000	F	Final E (V)
SCANRATE	QUANT	2.00000E+002	Scan Rate (mV/s)
STEPSIZE	QUANT	2.00000E+000	Step Size (mV)
CYCLES	IQUANT	20	Cycles (#)
IMODE	SELECTOR	0	I/E Range Mode
IRANGE	QUANT	3.00000E-001	Max Current (mA)
AREA	QUANT	1.00000E+000	Sample Area (cm^2)
EQDELAY	QUANT	0.00000E+000	Equil. Time (s)
IRCOMP	SELECTOR	0	IRComp
PFCOR	QUANT	5.00000E+001	PF Corr. (ohm)
SAMPLINGMODE	SELECTOR	1	Sampling Mode
EOC	QUANT	-0.1279954	Open Circuit (V)
ELECTRODETYPE	SELECTOR	0	Electrode Type
STRIPPING	TOGGLE	F	Used for Stripping
SEQUENCER	TOGGLE	TRUE	Run as Sequence
PSTATMODEL	IQUANT	64	Pstat Model
PSTATSECTION	LABEL	IFC1010-36105	Pstat Section
PSTATSERIALNO	LABEL	36105	Pstat Serial Number
CTRLMODE	IQUANT	1	Control Mode
ELECTROMETER	IQUANT	0	RE=0 or CS=1
IESTAB	IQUANT	2	I/E Stability
CASPEED	IQUANT	4	Control Amp Speed
CONVENTION	IQUANT	1	Current Convention
ICHRANGE	IQUANT	2	Ich Range
ICHRANGEMODE	TOGGLE	F	Ich Auto Range
ICHOFFSETENABLE	TOGGLE	F	Ich Offset Enable
ICHOFFSET	QUANT	0	Ich Offset (V)
ICHFILTER	IQUANT	3	Ich Filter
VCHRANGE	IQUANT	2	Vch Range
VCHRANGEMODE	TOGGLE	F	Vch Auto Range
VCHOFFSETENABLE	TOGGLE	F	Vch Offset Enable
VCHOFFSET	QUANT	0	Vch Offset (V)
VCHFILTER	IQUANT	3	Vch Filter
IERANGELOWERLIMIT	IQUANT	4	I/E Range Lower Limit
IERANGEMODE	TOGGLE	T	I/E AutoRange
IERANGE	IQUANT	9	I/E Range
ACHSELECT	IQUANT	0	Ach Select
ACHRANGE	IQUANT	2	Ach Range
ACHOFFSETENABLE	TOGGLE	F	Ach Offset Enable
ACHOFFSET	QUANT	0	Ach Offset (V)
ACHFILTER	IQUANT	1	Ach Filter
SENSECABLEID	IQUANT	13	Sense Cable ID
PWRCABLEID	IQUANT	13	Power Cable ID
DCCALDATE	LABEL	10/17/2023	DC Calibration Date
ACCALDATE	LABEL	6/2/2023	AC Calibration Date
FRAMEWORKVERSION	LABEL	7.10.3	Framework Version
INSTRUMENTVERSION	LABEL	4.91	Instrument Version
COMMVERSION	LABEL	3.10	Communications Version
CPUPLDVERSION	LABEL	2.22	CPU PLD Version
CTRLPLDVERSION	LABEL	0.00	CTRL PLD Version
PSTATPLDVERSION	LABEL	0.00	PSTAT PLD Version
CURVE1	TABLE
	Pt	T	Vf	Im	Vu	Sig	Ach	IERange	Over	Temp
	#	s	V vs. Ref.	A	V	V	V	#	bits	deg C
	0	0.01	1.20183E-004	2.79655E-006	0.00000E+000	2.72319E-006	0.00000E+000	9	...........	1490.70
	2	0.03	4.09200E-003	7.86912E-007	0.00000E+000	4.00379E-003	0.00000E+000	7	...........	1490.70
	4	0.05	8.17397E-003	-4.96957E-007	0.00000E+000	8.00486E-003	0.00000E+000	6	.....h.....	1490.70
	6	0.07	1.21800E-002	-5.75073E-007	0.00000E+000	1.20059E-002	0.00000E+000	6	.....h.....	1490.70
	8	0.09	1.62111E-002	-5.97752E-007	0.00000E+000	1.59945E-002	0.00000E+000	6	.....h.....	1490.70
	10	0.11	2.02088E-002	-5.62487E-007	0.00000E+000	1.99956E-002	0.00000E+000	6	.....h.....	1490.70
	12	0.13	2.42273E-002	-4.84647E-007	0.00000E+000	2.39966E-002	0.00000E+000	6	.....h.....	1490.70
	14	0.15	2.82308E-002	-3.82847E-007	0.00000E+000	2.79977E-002	0.00000E+000	6	.....h.....	1490.70
	16	0.17	3.22427E-002	-2.69699E-007	0.00000E+000	3.19988E-002	0.00000E+000	6	.....h.....	1490.70
	18	0.19	3.62162E-002	-1.25181E-007	0.00000E+000	3.59998E-002	0.00000E+000	6	.....h.....	1490.70
	20	0.21	4.02164E-002	2.81484E-008	0.00000E+000	4.00009E-002	0.00000E+000	6	.....h.....	1490.70
	22	0.23	4.42032E-002	2.15904E-007	0.00000E+000	4.40020E-002	0.00000E+000	6	.....h.....	1490.70
	24	0.25	4.82084E-002	4.21809E-007	0.00000E+000	4.80031E-002	0.00000E+000	6	.....h.....	1490.70
	26	0.27	5.22053E-002	6.44297E-007	0.00000E+000	5.20041E-002	0.00000E+000	6	.....h.....	1490.70
	28	0.29	5.61821E-002	8.82016E-007	0.00000E+000	5.60052E-002	0.00000E+000	6	....ih..i..	1490.70
	30	0.31	6.01523E-002	1.51114E-006	0.00000E+000	5.99938E-002	0.00000E+000	7	...........	1490.70
	32	0.33	6.41892E-002	2.20715E-006	0.00000E+000	6.39948E-002	0.00000E+000	7	...........	1490.70
	34	0.35	6.81827E-002	2.46541E-006	0.00000E+000	6.79959E-002	0.00000E+000	7	...........	1490.70
	36	0.37	7.21820E-002	2.75628E-006	0.00000E+000	7.19970E-002	0.00000E+000	7	...........	1490.70
	38	0.39	7.61889E-002	3.16144E-006	0.00000E+000	7.59980E-002	0.00000E+000	7	...........	1490.70
	40	0.41	8.01891E-002	3.51245E-006	0.00000E+000	7.99991E-002	0.00000E+000	7	...........	1490.70
	42	0.43	8.42001E-002	3.92345E-006	0.00000E+000	8.40002E-002	0.00000E+000	7	.....h.....	1490.70
	44	0.45	8.81920E-002	4.30136E-006	0.00000E+000	8.80012E-002	0.00000E+000	7	.....h.....	1490.70
	46	0.47	9.21955E-002	4.74382E-006	0.00000E+000	9.20023E-002	0.00000E+000	7	.....h.....	1490.70
	48	0.49	9.62090E-002	5.23295E-006	0.00000E+000	9.60034E-002	0.00000E+000	7	.....h.....	1490.70
	50	0.51	1.00226E-001	5.70327E-006	0.00000E+000	1.00004E-001	0.00000E+000	7	.....h.....	1490.70
	52	0.53	1.04224E-001	6.19652E-006	0.00000E+000	1.04006E-001	0.00000E+000	7	.....h.....	1490.70
	54	0.55	1.08211E-001	6.74518E-006	0.00000E+000	1.07994E-001	0.00000E+000	7	.....h.....	1490.70
	56	0.57	1.12214E-001	7.28756E-006	0.00000E+000	1.11995E-001	0.00000E+000	7	.....h.....	1490.70
	58	0.59	1.16223E-001	7.80666E-006	0.00000E+000	1.15996E-001	0.00000E+000	7	.....h..i..	1490.70
	60	0.61	1.20234E-001	8.40911E-006	0.00000E+000	1.19997E-001	0.00000E+000	7	....ih..i..	1490.70
	62	0.63	1.24230E-001	8.89539E-006	0.00000E+000	1.23998E-001	0.00000E+000	7	....ih..i..	1490.70
	64	0.65	1.28140E-001	9.54647E-006	0.00000E+000	1.27999E-001	0.00000E+000	8	...........	1490.70
	66	0.67	1.32135E-001	1.01160E-005	0.00000E+000	1.32001E-001	0.00000E+000	8	...........	1490.70
	68	0.69	1.36125E-001	1.07881E-005	0.00000E+000	1.36002E-001	0.00000E+000	8	...........	1490.70
	70	0.71	1.40113E-001	1.13848E-005	0.00000E+000	1.40003E-001	0.00000E+000	8	...........	1490.70
	72	0.73	1.44119E-001	1.20086E-005	0.00000E+000	1.44004E-001	0.00000E+000	8	...........	1490.70
	74	0.75	1.48118E-001	1.27207E-005	0.00000E+000	1.48005E-001	0.00000E+000	8	...........	1490.70
	76	0.77	1.52137E-001	1.34096E-005	0.00000E+000	1.52006E-001	0.00000E+000	8	...........	1490.70
	78	0.79	1.56118E-001	1.41605E-005	0.00000E+000	1.55994E-001	0.00000E+000	8	...........	1490.70
	80	0.81	1.60107E-001	1.48808E-005	0.00000E+000	1.59995E-001	0.00000E+000	8	...........	1490.70
	82	0.83	1.64118E-001	1.56336E-005	0.00000E+000	1.63997E-001	0.00000E+000	8	...........	1490.70
	84	0.85	1.68125E-001	1.64430E-005	0.00000E+000	1.67998E-001	0.00000E+000	8	...........	1490.70
	86	0.87	1.72120E-001	1.72172E-005	0.00000E+000	1.71999E-001	0.00000E+000	8	...........	1490.70
	88	0.89	1.76129E-001	1.80475E-005	0.00000E+000	1.76000E-001	0.00000E+000	8	...........	1490.70
	90	0.91	1.80157E-001	1.88993E-005	0.00000E+000	1.80001E-001	0.00000E+000	8	...........	1490.70
	92	0.93	1.84131E-001	1.97703E-005	0.00000E+000	1.84002E-001	0.00000E+000	8	...........	1490.70
	94	0.95	1.88138E-001	2.06117E-005	0.00000E+000	1.88003E-001	0.00000E+000	8	...........	1490.70
	96	0.97	1.92153E-001	2.15303E-005	0.00000E+000	1.92004E-001	0.00000E+000	8	...........	1490.70
	98	0.99	1.96163E-001	2.24507E-005	0.00000E+000	1.96005E-001	0.00000E+000	8	...........	1490.70
	100	1.01	2.00122E-001	2.33203E-005	0.00000E+000	1.99994E-001	0.00000E+000	8	...........	1490.70
	102	1.03	2.04116E-001	2.42137E-005	0.00000E+000	2.03995E-001	0.00000E+000	8	...........	1490.70
	104	1.05	2.08130E-001	2.51619E-005	0.00000E+000	2.07996E-001	0.00000E+000	8	...........	1490.70
	106	1.07	2.12129E-001	2.60740E-005	0.00000E+000	2.11997E-001	0.00000E+000	8	...........	1490.70
	108	1.09	2.16130E-001	2.70142E-005	0.00000E+000	2.15998E-001	0.00000E+000	8	...........	1490.70
	110	1.11	2.20132E-001	2.79109E-005	0.00000E+000	2.19999E-001	0.00000E+000	8	...........	1490.70
	112	1.13	2.24142E-001	2.88385E-005	0.00000E+000	2.24000E-001	0.00000E+000	8	...........	1490.70
	114	1.15	2.28159E-001	2.98734E-005	0.00000E+000	2.28001E-001	0.00000E+000	8	...........	1490.70
	116	1.17	2.32150E-001	3.08072E-005	0.00000E+000	2.32002E-001	0.00000E+000	8	...........	1490.70
	118	1.19	2.36151E-001	3.17875E-005	0.00000E+000	2.36003E-001	0.00000E+000	8	...........	1490.70
	120	1.21	2.40150E-001	3.27638E-005	0.00000E+000	2.40004E-001	0.00000E+000	8	...........	1490.70
	122	1.23	2.44167E-001	3.37435E-005	0.00000E+000	2.44005E-001	0.00000E+000	8	...........	1490.70
	124	1.25	2.48136E-001	3.47596E-005	0.00000E+000	2.47994E-001	0.00000E+000	8	...........	1490.70
	126	1.27	2.52125E-001	3.58084E-005	0.00000E+000	2.51995E-001	0.00000E+000	8	...........	1490.70
	128	1.29	2.56127E-001	3.68474E-005	0.00000E+000	2.55996E-001	0.00000E+000	8	...........	1490.70
	130	1.31	2.60150E-001	3.78540E-005	0.00000E+000	2.59997E-001	0.00000E+000	8	...........	1490.70
	132	1.33	2.64138E-001	3.89344E-005	0.00000E+000	2.63998E-001	0.00000E+000	8	...........	1490.70
	134	1.35	2.68145E-001	3.99919E-005	0.00000E+000	2.67999E-001	0.00000E+000	8	...........	1490.70
	136	1.37	2.72157E-001	4.10288E-005	0.00000E+000	2.72000E-001	0.00000E+000	8	...........	1490.70
	138	1.39	2.76167E-001	4.20707E-005	0.00000E+000	2.76002E-001	0.00000E+000	8	...........	1490.70
	140	1.41	2.80170E-001	4.31489E-005	0.00000E+000	2.80003E-001	0.00000E+000	8	...........	1490.70
	142	1.43	2.84156E-001	4.41847E-005	0.00000E+000	2.84004E-001	0.00000E+000	8	...........	1490.70
	144	1.45	2.88160E-001	4.52560E-005	0.00000E+000	2.88005E-001	0.00000E+000	8	...........	1490.70
	146	1.47	2.92160E-001	4.63164E-005	0.00000E+000	2.91993E-001	0.00000E+000	8	...........	1490.70
	148	1.49	2.96159E-001	4.73881E-005	0.00000E+000	2.95994E-001	0.00000E+000	8	...........	1490.70
	150	1.51	3.00143E-001	4.84255E-005	0.00000E+000	2.99995E-001	0.00000E+000	8	...........	1490.70
	152	1.53	3.04158E-001	4.94784E-005	0.00000E+000	3.03996E-001	0.00000E+000	8	...........	1490.70
	154	1.55	3.08185E-001	5.05313E-005	0.00000E+000	3.07998E-001	0.00000E+000	8	...........	1490.70
	156	1.57	3.12171E-001	5.17071E-005	0.00000E+000	3.11999E-001	0.00000E+000	8	...........	1490.70
	158	1.59	3.16149E-001	5.28087E-005	0.00000E+000	3.16000E-001	0.00000E+000	8	...........	1490.70
	160	1.61	3.20140E-001	5.39537E-005	0.00000E+000	3.20001E-001	0.00000E+000	8	...........	1489.61
	162	1.63	3.24177E-001	5.50743E-005	0.00000E+000	3.24002E-001	0.00000E+000	8	...........	1489.61
	164	1.65	3.28158E-001	5.61888E-005	0.00000E+000	3.28003E-001	0.00000E+000	8	...........	1489.61
	166	1.67	3.32170E-001	5.73582E-005	0.00000E+000	3.32004E-001	0.00000E+000	8	...........	1489.61
	168	1.69	3.36182E-001	5.85282E-005	0.00000E+000	3.36005E-001	0.00000E+000	8	...........	1489.61
	170	1.71	3.40165E-001	5.97188E-005	0.00000E+000	3.39994E-001	0.00000E+000	8	...........	1489.61
	172	1.73	3.44167E-001	6.09394E-005	0.00000E+000	3.43995E-001	0.00000E+000	8	...........	1489.61
	174	1.75	3.48166E-001	6.21663E-005	0.00000E+000	3.47996E-001	0.00000E+000	8	...........	1489.61
	176	1.77	3.52144E-001	6.34065E-005	0.00000E+000	3.51997E-001	0.00000E+000	8	...........	1489.61
	178	1.79	3.56169E-001	6.47168E-005	0.00000E+000	3.55998E-001	0.00000E+000	8	...........	1489.61
	180	1.81	3.60195E-001	6.59482E-005	0.00000E+000	3.59999E-001	0.00000E+000	8	...........	1489.61
	182	1.83	3.64172E-001	6.72400E-005	0.00000E+000	3.64000E-001	0.00000E+000	8	...........	1489.61
	184	1.85	3.68165E-001	6.85246E-005	0.00000E+000	3.68001E-001	0.00000E+000	8	...........	1489.61
	186	1.87	3.72174E-001	6.98646E-005	0.00000E+000	3.72002E-001	0.00000E+000	8	...........	1489.61
	188	1.89	3.76177E-001	7.11690E-005	0.00000E+000	3.76003E-001	0.00000E+000	8	...........	1489.61
	190	1.91	3.80183E-001	7.25365E-005	0.00000E+000	3.80004E-001	0.00000E+000	8	...........	1489.61
	192	1.93	3.84187E-001	7.38841E-005	0.00000E+000	3.84005E-001	0.00000E+000	8	...........	1489.61
	194	1.95	3.88195E-001	7.52522E-005	0.00000E+000	3.87994E-001	0.00000E+000	8	...........	1489.61
	196	1.97	3.92184E-001	7.66215E-005	0.00000E+000	3.91995E-001	0.00000E+000	8	...........	1489.61
	198	1.99	3.96187E-001	7.80395E-005	0.00000E+000	3.95996E-001	0.00000E+000	8	...........	1489.61
	200	2.01	4.00194E-001	7.94411E-005	0.00000E+000	3.99997E-001	0.00000E+000	8	...........	1489.61
	202	2.03	3.96182E-001	6.90108E-005	0.00000E+000	3.95996E-001	0.00000E+000	8	...........	1489.61
	204	2.05	3.92180E-001	6.12501E-005	0.00000E+000	3.91995E-001	0.00000E+000	8	...........	1489.61
	206	2.07	3.88193E-001	5.49833E-005	0.00000E+000	3.87994E-001	0.00000E+000	8	...........	1489.61
	208	2.09	3.84212E-001	4.97601E-005	0.00000E+000	3.84005E-001	0.00000E+000	8	...........	1489.61
	210	2.11	3.80202E-001	4.52644E-005	0.00000E+000	3.80004E-001	0.00000E+000	8	...........	1489.61
	212	2.13	3.76207E-001	4.13887E-005	0.00000E+000	3.76003E-001	0.00000E+000	8	...........	1489.61
	214	2.15	3.72190E-001	3.80285E-005	0.00000E+000	3.72002E-001	0.00000E+000	8	...........	1489.61
	216	2.17	3.68176E-001	3.50350E-005	0.00000E+000	3.68001E-001	0.00000E+000	8	...........	1489.61
	218	2.19	3.64173E-001	3.23510E-005	0.00000E+000	3.64000E-001	0.00000E+000	8	...........	1489.61
	220	2.21	3.60197E-001	2.99520E-005	0.00000E+000	3.59999E-001	0.00000E+000	8	...........	1489.61
	222	2.23	3.56164E-001	2.78064E-005	0.00000E+000	3.55998E-001	0.00000E+000	8	...........	1489.61
	224	2.25	3.52160E-001	2.58601E-005	0.00000E+000	3.51997E-001	0.00000E+000	8	...........	1489.61
	226	2.27	3.48165E-001	2.40105E-005	0.00000E+000	3.47996E-001	0.00000E+000	8	...........	1489.61
	228	2.29	3.44158E-001	2.23456E-005	0.00000E+000	3.43995E-001	0.00000E+000	8	...........	1489.61
	230	2.31	3.40157E-001	2.08314E-005	0.00000E+000	3.39994E-001	0.00000E+000	8	...........	1489.61
	232	2.33	3.36167E-001	1.93780E-005	0.00000E+000	3.36005E-001	0.00000E+000	8	...........	1489.61
	234	2.35	3.32184E-001	1.80517E-005	0.00000E+000	3.32004E-001	0.00000E+000	8	...........	1489.61
	236	2.37	3.28162E-001	1.67723E-005	0.00000E+000	3.28003E-001	0.00000E+000	8	...........	1489.61
	238	2.39	3.24172E-001	1.55908E-005	0.00000E+000	3.24002E-001	0.00000E+000	8	...........	1489.61
	240	2.41	3.20150E-001	1.44964E-005	0.00000E+000	3.20001E-001	0.00000E+000	8	...........	1489.61
	242	2.43	3.16151E-001	1.34612E-005	0.00000E+000	3.16000E-001	0.00000E+000	8	...........	1489.61
	244	2.45	3.12173E-001	1.23465E-005	0.00000E+000	3.11999E-001	0.00000E+000	8	...........	1489.61
	246	2.47	3.08184E-001	1.14124E-005	0.00000E+000	3.07998E-001	0.00000E+000	8	...........	1489.61
	248	2.49	3.04154E-001	1.05142E-005	0.00000E+000	3.03996E-001	0.00000E+000	8	...........	1489.61
	250	2.51	3.00153E-001	9.54457E-006	0.00000E+000	2.99995E-001	0.00000E+000	8	...........	1489.61
	252	2.53	2.96171E-001	8.67539E-006	0.00000E+000	2.95994E-001	0.00000E+000	8	...........	1489.61
	254	2.55	2.92157E-001	7.89919E-006	0.00000E+000	2.91993E-001	0.00000E+000	8	...........	1489.61
	256	2.57	2.88121E-001	7.95102E-006	0.00000E+000	2.88005E-001	0.00000E+000	7	.....h.....	1489.61
	258	2.59	2.84130E-001	7.24353E-006	0.00000E+000	2.84004E-001	0.00000E+000	7	.....h.....	1489.61
	260	2.61	2.80137E-001	6.56056E-006	0.00000E+000	2.80003E-001	0.00000E+000	7	.....h.....	1489.33
	262	2.63	2.76126E-001	5.91211E-006	0.00000E+000	2.76002E-001	0.00000E+000	7	.....h.....	1489.33
	264	2.65	2.72131E-001	5.33763E-006	0.00000E+000	2.72000E-001	0.00000E+000	7	.....h.....	1489.33
	266	2.67	2.68101E-001	4.80688E-006	0.00000E+000	2.67999E-001	0.00000E+000	7	.....h.....	1489.33
	268	2.69	2.64122E-001	4.36274E-006	0.00000E+000	2.63998E-001	0.00000E+000	7	.....h.....	1489.33
	270	2.71	2.60131E-001	3.93411E-006	0.00000E+000	2.59997E-001	0.00000E+000	7	.....h.....	1489.33
	272	2.73	2.56137E-001	3.54924E-006	0.00000E+000	2.55996E-001	0.00000E+000	7	.....h.....	1489.33
	274	2.75	2.52110E-001	3.24418E-006	0.00000E+000	2.51995E-001	0.00000E+000	7	.....h.....	1489.33
	276	2.77	2.48104E-001	2.96277E-006	0.00000E+000	2.47994E-001	0.00000E+000	7	...........	1489.33
	278	2.79	2.44138E-001	2.71929E-006	0.00000E+000	2.44005E-001	0.00000E+000	7	...........	1489.33
	280	2.81	2.40113E-001	2.57234E-006	0.00000E+000	2.40004E-001	0.00000E+000	7	...........	1489.33
	282	2.83	2.36119E-001	2.36992E-006	0.00000E+000	2.36003E-001	0.00000E+000	7	...........	1489.33
	284	2.85	2.32135E-001	2.26890E-006	0.00000E+000	2.32002E-001	0.00000E+000	7	...........	1489.33
	286	2.87	2.28130E-001	2.20784E-006	0.00000E+000	2.28001E-001	0.00000E+000	7	...........	1489.33
	288	2.89	2.24125E-001	2.07598E-006	0.00000E+000	2.24000E-001	0.00000E+000	7	...........	1489.33
	290	2.91	2.20118E-001	1.97176E-006	0.00000E+000	2.19999E-001	0.00000E+000	7	...........	1489.33
	292	2.93	2.16106E-001	1.95167E-006	0.00000E+000	2.15998E-001	0.00000E+000	7	...........	1489.33
	294	2.95	2.12126E-001	1.90890E-006	0.00000E+000	2.11997E-001	0.00000E+000	7	...........	1489.33
	296	2.97	2.08128E-001	1.85616E-006	0.00000E+000	2.07996E-001	0.00000E+000	7	...........	1489.33
	298	2.99	2.04124E-001	1.84820E-006	0.00000E+000	2.03995E-001	0.00000E+000	7	...........	1489.33
	300	3.01	2.00121E-001	1.78053E-006	0.00000E+000	1.99994E-001	0.00000E+000	7	...........	1489.33
	302	3.03	1.96160E-001	1.76529E-006	0.00000E+000	1.96005E-001	0.00000E+000	7	...........	1489.33
	304	3.05	1.92145E-001	1.75141E-006	0.00000E+000	1.92004E-001	0.00000E+000	7	...........	1489.33
	306	3.07	1.88147E-001	1.70830E-006	0.00000E+000	1.88003E-001	0.00000E+000	7	...........	1489.33
	308	3.09	1.84147E-001	1.67294E-006	0.00000E+000	1.84002E-001	0.00000E+000	7	...........	1489.33
	310	3.11	1.80167E-001	1.60600E-006	0.00000E+000	1.80001E-001	0.00000E+000	7	...........	1489.33
	312	3.13	1.76140E-001	1.57711E-006	0.00000E+000	1.76000E-001	0.00000E+000	7	...........	1489.33
	314	3.15	1.72160E-001	1.52318E-006	0.00000E+000	1.71999E-001	0.00000E+000	7	...........	1489.33
	316	3.17	1.68157E-001	1.47076E-006	0.00000E+000	1.67998E-001	0.00000E+000	7	...........	1489.33
	318	3.19	1.64132E-001	1.45409E-006	0.00000E+000	1.63997E-001	0.00000E+000	7	...........	1489.33
	320	3.21	1.60131E-001	1.40158E-006	0.00000E+000	1.59995E-001	0.00000E+000	7	...........	1489.33
	322	3.23	1.56169E-001	1.36492E-006	0.00000E+000	1.55994E-001	0.00000E+000	7	...........	1489.33
	324	3.25	1.52167E-001	1.29642E-006	0.00000E+000	1.52006E-001	0.00000E+000	7	...........	1489.33
	326	3.27	1.48156E-001	1.26577E-006	0.00000E+000	1.48005E-001	0.00000E+000	7	...........	1489.33
	328	3.29	1.44160E-001	1.23405E-006	0.00000E+000	1.44004E-001	0.00000E+000	7	...........	1489.33
	330	3.31	1.40155E-001	1.20600E-006	0.00000E+000	1.40003E-001	0.00000E+000	7	...........	1489.33
	332	3.33	1.36148E-001	1.14697E-006	0.00000E+000	1.36002E-001	0.00000E+000	7	...........	1489.33
	334	3.35	1.32169E-001	1.11936E-006	0.00000E+000	1.32001E-001	0.00000E+000	7	...........	1489.33
	336	3.37	1.28167E-001	1.03792E-006	0.00000E+000	1.27999E-001	0.00000E+000	7	...........	1489.33
	338	3.39	1.24136E-001	1.02843E-006	0.00000E+000	1.23998E-001	0.00000E+000	7	...........	1489.33
	340	3.41	1.20163E-001	1.01672E-006	0.00000E+000	1.19997E-001	0.00000E+000	7	...........	1489.33
	342	3.43	1.16150E-001	9.56855E-007	0.00000E+000	1.15996E-001	0.00000E+000	7	...........	1489.33
	344	3.45	1.12139E-001	9.10953E-007	0.00000E+000	1.11995E-001	0.00000E+000	7	...........	1489.33
	346	3.47	1.08133E-001	8.91577E-007	0.00000E+000	1.07994E-001	0.00000E+000	7	...........	1489.33
	348	3.49	1.04168E-001	8.36214E-007	0.00000E+000	1.04006E-001	0.00000E+000	7	...........	1489.33
	350	3.51	1.00175E-001	8.45876E-007	0.00000E+000	1.00004E-001	0.00000E+000	7	...........	1489.33
	352	3.53	9.61498E-002	8.29764E-007	0.00000E+000	9.60034E-002	0.00000E+000	7	...........	1489.33
	354	3.55	9.21454E-002	7.49592E-007	0.00000E+000	9.20023E-002	0.00000E+000	7	...........	1489.33
	356	3.57	8.80752E-002	9.84735E-007	0.00000E+000	8.80012E-002	0.00000E+000	7	.....h.....	1489.33
	358	3.59	8.39565E-002	1.09388E-006	0.00000E+000	8.40002E-002	0.00000E+000	6	....ih..i..	1489.33
	360	3.61	8.01407E-002	7.51067E-007	0.00000E+000	7.99991E-002	0.00000E+000	7	...........	1489.24
	362	3.63	7.60829E-002	9.53558E-007	0.00000E+000	7.59980E-002	0.00000E+000	7	.....h.....	1489.24
	364	3.65	7.19609E-002	1.09388E-006	0.00000E+000	7.19970E-002	0.00000E+000	6	....ih..i..	1489.24
	366	3.67	6.81376E-002	6.53465E-007	0.00000E+000	6.79959E-002	0.00000E+000	7	...........	1489.24
	368	3.69	6.41024E-002	8.54898E-007	0.00000E+000	6.39948E-002	0.00000E+000	7	.....h.....	1489.24
	370	3.71	5.99495E-002	1.09388E-006	0.00000E+000	5.99938E-002	0.00000E+000	6	....ih..i..	1489.24
	372	3.73	5.61654E-002	5.41784E-007	0.00000E+000	5.60052E-002	0.00000E+000	7	...........	1489.24
	374	3.75	5.21260E-002	7.78536E-007	0.00000E+000	5.20041E-002	0.00000E+000	7	.....h.....	1489.24
	376	3.77	4.81191E-002	7.91901E-007	0.00000E+000	4.80031E-002	0.00000E+000	7	.....h.....	1489.24
	378	3.79	4.41014E-002	7.65654E-007	0.00000E+000	4.40020E-002	0.00000E+000	7	.....h.....	1489.24
	380	3.81	4.00996E-002	7.21670E-007	0.00000E+000	4.00009E-002	0.00000E+000	7	.....h.....	1489.24
	382	3.83	3.61052E-002	6.94318E-007	0.00000E+000	3.59998E-002	0.00000E+000	7	.....h.....	1489.24
	384	3.85	3.21134E-002	6.54564E-007	0.00000E+000	3.19988E-002	0.00000E+000	7	.....h.....	1489.24
	386	3.87	2.81090E-002	6.26099E-007	0.00000E+000	2.79977E-002	0.00000E+000	7	.....h.....	1489.24
	388	3.89	2.41038E-002	6.13980E-007	0.00000E+000	2.39966E-002	0.00000E+000	7	.....h.....	1489.24
	390	3.91	2.00986E-002	5.69428E-007	0.00000E+000	1.99956E-002	0.00000E+000	7	.....h.....	1489.24
	392	3.93	1.61009E-002	5.49913E-007	0.00000E+000	1.59945E-002	0.00000E+000	7	.....h.....	1489.24
	394	3.95	1.20974E-002	5.64425E-007	0.00000E+000	1.20059E-002	0.00000E+000	7	.....h.....	1489.24
	396	3.97	8.12307E-003	5.43006E-007	0.00000E+000	8.00486E-003	0.00000E+000	7	.....h.....	1489.24
	398	3.99	4.13623E-003	4.77149E-007	0.00000E+000	4.00379E-003	0.00000E+000	7	.....h.....	1489.24
	400	4.01	1.35202E-004	4.92785E-007	0.00000E+000	2.72319E-006	0.00000E+000	7	.....h.....	1489.24
	402	4.03	-3.88084E-003	4.31142E-007	0.00000E+000	-3.99835E-003	0.00000E+000	7	.....h.....	1489.24
	404	4.05	-7.88604E-003	4.12453E-007	0.00000E+000	-7.99942E-003	0.00000E+000	7	.....h.....	1489.24
	406	4.07	-1.18787E-002	3.69573E-007	0.00000E+000	-1.20005E-002	0.00000E+000	7	.....h.....	1489.24
	408	4.09	-1.58906E-002	3.44322E-007	0.00000E+000	-1.60016E-002	0.00000E+000	7	.....h.....	1489.24
	410	4.11	-1.98849E-002	3.30742E-007	0.00000E+000	-2.00026E-002	0.00000E+000	7	.....h.....	1489.24
	412	4.13	-2.38851E-002	3.06360E-007	0.00000E+000	-2.40037E-002	0.00000E+000	7	.....h.....	1489.24
	414	4.15	-2.79028E-002	2.66753E-007	0.00000E+000	-2.80048E-002	0.00000E+000	7	...........	1489.24
	416	4.17	-3.18755E-002	2.83422E-007	0.00000E+000	-3.20058E-002	0.00000E+000	7	...........	1489.24
	418	4.19	-3.58607E-002	1.98294E-007	0.00000E+000	-3.59944E-002	0.00000E+000	7	...........	1489.24
	420	4.21	-3.98792E-002	2.14963E-007	0.00000E+000	-3.99955E-002	0.00000E+000	7	...........	1489.24
	422	4.23	-4.38827E-002	1.86554E-007	0.00000E+000	-4.39965E-002	0.00000E+000	7	...........	1489.24
	424	4.25	-4.78696E-002	1.28235E-007	0.00000E+000	-4.79976E-002	0.00000E+000	7	...........	1489.24
	426	4.27	-5.18898E-002	9.82177E-008	0.00000E+000	-5.19987E-002	0.00000E+000	7	...........	1489.24
	428	4.29	-5.58975E-002	7.87662E-008	0.00000E+000	-5.59997E-002	0.00000E+000	7	...........	1489.24
	430	4.31	-5.99027E-002	5.60116E-008	0.00000E+000	-6.00008E-002	0.00000E+000	7	...........	1489.24
	432	4.33	-6.38987E-002	-9.13841E-009	0.00000E+000	-6.40019E-002	0.00000E+000	7	...........	1489.24
	434	4.35	-6.79039E-002	1.08112E-008	0.00000E+000	-6.80030E-002	0.00000E+000	7	...........	1489.24
	436	4.37	-7.18991E-002	-3.63844E-008	0.00000E+000	-7.20040E-002	0.00000E+000	7	...........	1489.24
	438	4.39	-7.59093E-002	-1.00577E-007	0.00000E+000	-7.60051E-002	0.00000E+000	7	...........	1489.24
	440	4.41	-7.99045E-002	-1.28026E-007	0.00000E+000	-7.99937E-002	0.00000E+000	7	...........	1489.24
	442	4.43	-8.39205E-002	-1.64511E-007	0.00000E+000	-8.39947E-002	0.00000E+000	7	...........	1489.24
	444	4.45	-8.79257E-002	-1.78700E-007	0.00000E+000	-8.79958E-002	0.00000E+000	7	...........	1489.24
	446	4.47	-9.19326E-002	-1.83776E-007	0.00000E+000	-9.19969E-002	0.00000E+000	7	...........	1489.24
	448	4.49	-9.60646E-002	7.92032E-007	0.00000E+000	-9.59979E-002	0.00000E+000	6	....ih.....	1489.24
	450	4.51	-1.00081E-001	7.19906E-007	0.00000E+000	-9.99990E-002	0.00000E+000	6	.....h.....	1489.24
	452	4.53	-1.04095E-001	6.47603E-007	0.00000E+000	-1.04000E-001	0.00000E+000	6	.....h.....	1489.24
	454	4.55	-1.08099E-001	6.18218E-007	0.00000E+000	-1.08001E-001	0.00000E+000	6	.....h.....	1489.24
	456	4.57	-1.12092E-001	5.76411E-007	0.00000E+000	-1.12002E-001	0.00000E+000	6	.....h.....	1489.24
	458	4.59	-1.16099E-001	5.24457E-007	0.00000E+000	-1.16003E-001	0.00000E+000	6	.....h.....	1489.24
	460	4.61	-1.20096E-001	4.61673E-007	0.00000E+000	-1.20004E-001	0.00000E+000	6	.....h.....	1489.33
	462	4.63	-1.24067E-001	4.19022E-007	0.00000E+000	-1.24005E-001	0.00000E+000	6	.....h.....	1489.33
	464	4.65	-1.28062E-001	3.60314E-007	0.00000E+000	-1.27994E-001	0.00000E+000	6	.....h.....	1489.33
	466	4.67	-1.32072E-001	3.03403E-007	0.00000E+000	-1.31995E-001	0.00000E+000	6	.....h.....	1489.33
	468	4.69	-1.36068E-001	2.36871E-007	0.00000E+000	-1.35996E-001	0.00000E+000	6	.....h.....	1489.33
	470	4.71	-1.40055E-001	1.82335E-007	0.00000E+000	-1.39997E-001	0.00000E+000	6	.....h.....	1489.33
	472	4.73	-1.44068E-001	1.22082E-007	0.00000E+000	-1.43998E-001	0.00000E+000	6	.....h.....	1489.33
	474	4.75	-1.48056E-001	5.41252E-008	0.00000E+000	-1.47999E-001	0.00000E+000	6	.....h.....	1489.33
	476	4.77	-1.52042E-001	-3.95038E-008	0.00000E+000	-1.52000E-001	0.00000E+000	6	.....h.....	1489.33
	478	4.79	-1.56066E-001	-1.01712E-007	0.00000E+000	-1.56001E-001	0.00000E+000	6	.....h.....	1489.33
	480	4.81	-1.60056E-001	-1.80470E-007	0.00000E+000	-1.60003E-001	0.00000E+000	6	.....h.....	1489.33
	482	4.83	-1.64054E-001	-2.56749E-007	0.00000E+000	-1.64004E-001	0.00000E+000	6	.....h.....	1489.33
	484	4.85	-1.68047E-001	-3.61004E-007	0.00000E+000	-1.68005E-001	0.00000E+000	6	.....h.....	1489.33
	486	4.87	-1.72043E-001	-4.46319E-007	0.00000E+000	-1.72006E-001	0.00000E+000	6	.....h.....	1489.33
	488	4.89	-1.76028E-001	-5.53741E-007	0.00000E+000	-1.75994E-001	0.00000E+000	6	.....h.....	1489.33
	490	4.91	-1.80015E-001	-6.66643E-007	0.00000E+000	-1.79995E-001	0.00000E+000	6	.....h..i..	1489.33
	492	4.93	-1.84032E-001	-7.98525E-007	0.00000E+000	-1.83996E-001	0.00000E+000	6	....ih..i..	1489.33
	494	4.95	-1.88011E-001	-9.18098E-007	0.00000E+000	-1.87998E-001	0.00000E+000	6	....ih..i..	1489.33
	496	4.97	-1.91939E-001	-2.04076E-006	0.00000E+000	-1.91999E-001	0.00000E+000	7	...........	1489.33
	498	4.99	-1.95969E-001	-2.24917E-006	0.00000E+000	-1.96000E-001	0.00000E+000	7	...........	1489.33
	500	5.01	-1.99955E-001	-2.48062E-006	0.00000E+000	-2.00001E-001	0.00000E+000	7	...........	1489.33
	502	5.03	-2.03975E-001	-2.72915E-006	0.00000E+000	-2.04002E-001	0.00000E+000	7	...........	1489.33
	504	5.05	-2.07996E-001	-2.98904E-006	0.00000E+000	-2.08003E-001	0.00000E+000	7	...........	1489.33
	506	5.07	-2.11979E-001	-3.24529E-006	0.00000E+000	-2.12004E-001	0.00000E+000	7	...........	1489.33
	508	5.09	-2.15991E-001	-3.60016E-006	0.00000E+000	-2.16005E-001	0.00000E+000	7	...........	1489.33
	510	5.11	-2.19975E-001	-3.92302E-006	0.00000E+000	-2.19994E-001	0.00000E+000	7	...........	1489.33
	512	5.13	-2.23961E-001	-4.33524E-006	0.00000E+000	-2.23995E-001	0.00000E+000	7	...........	1489.33
	514	5.15	-2.27970E-001	-4.81446E-006	0.00000E+000	-2.27996E-001	0.00000E+000	7	...........	1489.33
	516	5.17	-2.31963E-001	-5.33666E-006	0.00000E+000	-2.31997E-001	0.00000E+000	7	.....h.....	1489.33
	518	5.19	-2.35979E-001	-5.91718E-006	0.00000E+000	-2.35998E-001	0.00000E+000	7	.....h.....	1489.33
	520	5.21	-2.39967E-001	-6.57545E-006	0.00000E+000	-2.39999E-001	0.00000E+000	7	.....h.....	1489.33
	522	5.23	-2.43996E-001	-7.24944E-006	0.00000E+000	-2.44000E-001	0.00000E+000	7	.....h.....	1489.33
	524	5.25	-2.47989E-001	-8.02778E-006	0.00000E+000	-2.48001E-001	0.00000E+000	7	.....h.....	1489.33
	526	5.27	-2.51982E-001	-8.79001E-006	0.00000E+000	-2.52002E-001	0.00000E+000	7	....ih..i..	1489.33
	528	5.29	-2.55887E-001	-9.50659E-006	0.00000E+000	-2.56003E-001	0.00000E+000	8	...........	1489.33
	530	5.31	-2.59936E-001	-1.03811E-005	0.00000E+000	-2.60004E-001	0.00000E+000	8	...........	1489.33
	532	5.33	-2.63929E-001	-1.12592E-005	0.00000E+000	-2.64005E-001	0.00000E+000	8	...........	1489.33
	534	5.35	-2.67895E-001	-1.21703E-005	0.00000E+000	-2.67994E-001	0.00000E+000	8	...........	1489.33
	536	5.37	-2.71912E-001	-1.30057E-005	0.00000E+000	-2.71995E-001	0.00000E+000	8	...........	1489.33
	538	5.39	-2.75924E-001	-1.40221E-005	0.00000E+000	-2.75996E-001	0.00000E+000	8	...........	1489.33
	540	5.41	-2.79912E-001	-1.48086E-005	0.00000E+000	-2.79997E-001	0.00000E+000	8	...........	1489.33
	542	5.43	-2.83912E-001	-1.55708E-005	0.00000E+000	-2.83998E-001	0.00000E+000	8	...........	1489.33
	544	5.45	-2.87921E-001	-1.63155E-005	0.00000E+000	-2.87999E-001	0.00000E+000	8	...........	1489.33
	546	5.47	-2.91907E-001	-1.69615E-005	0.00000E+000	-2.92000E-001	0.00000E+000	8	...........	1489.33
	548	5.49	-2.95930E-001	-1.75290E-005	0.00000E+000	-2.96001E-001	0.00000E+000	8	...........	1489.33
	550	5.51	-2.99911E-001	-1.79556E-005	0.00000E+000	-3.00002E-001	0.00000E+000	8	...........	1489.33
CURVE2	TABLE
	Pt	T	Vf	Im	Vu	Sig	Ach	IERange	Over	Temp
	#	s	V vs. Ref.	A	V	V	V	#	bits	deg C
	551	5.52	-2.97918E-001	-1.57741E-005	0.00000E+000	-2.98002E-001	0.00000E+000	8	...........	1489.33
	553	5.54	-2.93902E-001	-1.32219E-005	0.00000E+000	-2.94001E-001	0.00000E+000	8	...........	1489.33
	555	5.56	-2.89911E-001	-1.14220E-005	0.00000E+000	-2.90000E-001	0.00000E+000	8	...........	1489.33
	557	5.58	-2.85914E-001	-9.98627E-006	0.00000E+000	-2.85999E-001	0.00000E+000	8	...........	1489.33
	559	5.6	-2.81903E-001	-8.79450E-006	0.00000E+000	-2.81998E-001	0.00000E+000	8	...........	1489.33
	561	5.62	-2.77896E-001	-7.74222E-006	0.00000E+000	-2.77997E-001	0.00000E+000	8	...........	1489.24
	563	5.64	-2.73810E-001	-6.66062E-006	0.00000E+000	-2.73996E-001	0.00000E+000	7	.....h.....	1489.24
	565	5.66	-2.69823E-001	-5.94344E-006	0.00000E+000	-2.69994E-001	0.00000E+000	7	.....h.....	1489.24
	567	5.68	-2.65837E-001	-5.23105E-006	0.00000E+000	-2.66006E-001	0.00000E+000	7	.....h.....	1489.24
	569	5.7	-2.61834E-001	-4.68241E-006	0.00000E+000	-2.62005E-001	0.00000E+000	7	.....h.....	1489.24
	571	5.72	-2.57820E-001	-4.12431E-006	0.00000E+000	-2.58004E-001	0.00000E+000	7	.....h.....	1489.24
	573	5.74	-2.53819E-001	-3.67306E-006	0.00000E+000	-2.54003E-001	0.00000E+000	7	.....h.....	1489.24
	575	5.76	-2.49827E-001	-3.23877E-006	0.00000E+000	-2.50002E-001	0.00000E+000	7	.....h.....	1489.24
	577	5.78	-2.45823E-001	-2.86896E-006	0.00000E+000	-2.46001E-001	0.00000E+000	7	.....h.....	1489.24
	579	5.8	-2.41820E-001	-2.48795E-006	0.00000E+000	-2.41999E-001	0.00000E+000	7	.....h.....	1489.24
	581	5.82	-2.37837E-001	-2.19506E-006	0.00000E+000	-2.37998E-001	0.00000E+000	7	.....h.....	1489.24
	583	5.84	-2.33833E-001	-1.95936E-006	0.00000E+000	-2.33997E-001	0.00000E+000	7	.....h.....	1489.24
	585	5.86	-2.29815E-001	-1.72203E-006	0.00000E+000	-2.29996E-001	0.00000E+000	7	.....h.....	1489.24
	587	5.88	-2.25839E-001	-1.55821E-006	0.00000E+000	-2.25995E-001	0.00000E+000	7	.....h.....	1489.24
	589	5.9	-2.21829E-001	-1.33712E-006	0.00000E+000	-2.21994E-001	0.00000E+000	7	.....h.....	1489.24
	591	5.92	-2.17853E-001	-1.19808E-006	0.00000E+000	-2.18006E-001	0.00000E+000	7	.....h.....	1489.24
	593	5.94	-2.13854E-001	-1.06609E-006	0.00000E+000	-2.14004E-001	0.00000E+000	7	.....h.....	1489.24
	595	5.96	-2.09875E-001	-9.22485E-007	0.00000E+000	-2.10003E-001	0.00000E+000	7	.....h.....	1489.24
	597	5.98	-2.05856E-001	-8.45917E-007	0.00000E+000	-2.06002E-001	0.00000E+000	7	.....h.....	1489.24
	599	6	-2.01547E-001	-1.09451E-006	0.00000E+000	-2.02001E-001	0.00000E+000	6	....ih..i..	1489.24
	601	6.02	-1.97559E-001	-1.09451E-006	0.00000E+000	-1.98000E-001	0.00000E+000	6	....ih..i..	1489.24
	603	6.04	-1.93588E-001	-1.09424E-006	0.00000E+000	-1.93999E-001	0.00000E+000	6	....ih..i..	1489.24
	605	6.06	-1.89592E-001	-1.09308E-006	0.00000E+000	-1.89998E-001	0.00000E+000	6	....ih..i..	1489.24
	607	6.08	-1.85589E-001	-1.09023E-006	0.00000E+000	-1.85997E-001	0.00000E+000	6	....ih..i..	1489.24
	609	6.1	-1.81611E-001	-1.08855E-006	0.00000E+000	-1.81996E-001	0.00000E+000	6	....ih..i..	1489.24
	611	6.12	-1.77620E-001	-1.08594E-006	0.00000E+000	-1.77995E-001	0.00000E+000	6	....ih..i..	1489.24
	613	6.14	-1.73652E-001	-1.08182E-006	0.00000E+000	-1.74006E-001	0.00000E+000	6	....ih..i..	1489.24
	615	6.16	-1.69662E-001	-1.08018E-006	0.00000E+000	-1.70005E-001	0.00000E+000	6	....ih..i..	1489.24
	617	6.18	-1.65662E-001	-1.07665E-006	0.00000E+000	-1.66004E-001	0.00000E+000	6	....ih..i..	1489.24
	619	6.2	-1.61661E-001	-1.07357E-006	0.00000E+000	-1.62003E-001	0.00000E+000	6	....ih..i..	1489.24
	621	6.22	-1.57680E-001	-1.06944E-006	0.00000E+000	-1.58002E-001	0.00000E+000	6	....ih..i..	1489.24
	623	6.24	-1.53669E-001	-1.06481E-006	0.00000E+000	-1.54001E-001	0.00000E+000	6	....ih..i..	1489.24
	625	6.26	-1.49687E-001	-1.06374E-006	0.00000E+000	-1.50000E-001	0.00000E+000	6	....ih..i..	1489.24
	627	6.28	-1.45687E-001	-1.05464E-006	0.00000E+000	-1.45999E-001	0.00000E+000	6	....ih..i..	1489.24
	629	6.3	-1.41719E-001	-1.05407E-006	0.00000E+000	-1.41998E-001	0.00000E+000	6	....ih..i..	1489.24
	631	6.32	-1.37711E-001	-1.04479E-006	0.00000E+000	-1.37997E-001	0.00000E+000	6	....ih..i..	1489.24
	633	6.34	-1.33706E-001	-1.03861E-006	0.00000E+000	-1.33996E-001	0.00000E+000	6	....ih..i..	1489.24
	635	6.36	-1.29723E-001	-1.03795E-006	0.00000E+000	-1.29995E-001	0.00000E+000	6	....ih..i..	1489.24
	637	6.38	-1.25735E-001	-1.03137E-006	0.00000E+000	-1.26006E-001	0.00000E+000	6	....ih..i..	1489.24
	639	6.4	-1.21735E-001	-1.02240E-006	0.00000E+000	-1.22005E-001	0.00000E+000	6	....ih..i..	1489.24
	641	6.42	-1.17754E-001	-1.01758E-006	0.00000E+000	-1.18004E-001	0.00000E+000	6	....ih..i..	1489.24
	643	6.44	-1.13749E-001	-1.00809E-006	0.00000E+000	-1.14003E-001	0.00000E+000	6	....ih..i..	1489.24
	645	6.46	-1.09759E-001	-9.96003E-007	0.00000E+000	-1.10002E-001	0.00000E+000	6	....ih..i..	1489.24
	647	6.48	-1.05784E-001	-9.85272E-007	0.00000E+000	-1.06001E-001	0.00000E+000	6	....ih..i..	1489.24
	649	6.5	-1.01747E-001	-9.73259E-007	0.00000E+000	-1.02000E-001	0.00000E+000	6	....ih..i..	1489.24
	651	6.52	-9.77769E-002	-9.48949E-007	0.00000E+000	-9.79985E-002	0.00000E+000	6	....ih..i..	1489.24
	653	6.54	-9.37833E-002	-9.38569E-007	0.00000E+000	-9.39974E-002	0.00000E+000	6	....ih..i..	1489.24
	655	6.56	-8.97990E-002	-8.78290E-007	0.00000E+000	-8.99963E-002	0.00000E+000	6	.....h.....	1489.24
	657	6.58	-8.57287E-002	-8.13337E-007	0.00000E+000	-8.59953E-002	0.00000E+000	6	....ih.....	1489.24
	659	6.6	-8.17369E-002	-7.77719E-007	0.00000E+000	-8.19942E-002	0.00000E+000	6	.....h.....	1489.24
	661	6.62	-7.77634E-002	-7.45873E-007	0.00000E+000	-7.80056E-002	0.00000E+000	6	.....h.....	1489.33
	663	6.64	-7.37715E-002	-6.96425E-007	0.00000E+000	-7.40046E-002	0.00000E+000	6	.....h.....	1489.33
	665	6.66	-6.97713E-002	-6.80232E-007	0.00000E+000	-7.00035E-002	0.00000E+000	6	.....h.....	1489.33
	667	6.68	-6.57845E-002	-6.44610E-007	0.00000E+000	-6.60024E-002	0.00000E+000	6	.....h.....	1489.33
	669	6.7	-6.17760E-002	-5.97342E-007	0.00000E+000	-6.20013E-002	0.00000E+000	6	.....h.....	1489.33
	671	6.72	-5.78025E-002	-5.74905E-007	0.00000E+000	-5.80003E-002	0.00000E+000	6	.....h.....	1489.33
	673	6.74	-5.38181E-002	-5.19557E-007	0.00000E+000	-5.39992E-002	0.00000E+000	6	.....h.....	1489.33
	675	6.76	-4.97896E-002	-4.76537E-007	0.00000E+000	-4.99981E-002	0.00000E+000	6	.....h.....	1489.33
	677	6.78	-4.58144E-002	-4.29214E-007	0.00000E+000	-4.59971E-002	0.00000E+000	6	.....h.....	1489.33
	679	6.8	-4.18484E-002	-3.89918E-007	0.00000E+000	-4.19960E-002	0.00000E+000	6	.....h.....	1489.33
	681	6.82	-3.78207E-002	-3.29349E-007	0.00000E+000	-3.79949E-002	0.00000E+000	6	.....h.....	1489.33
	683	6.84	-3.38472E-002	-2.88264E-007	0.00000E+000	-3.40064E-002	0.00000E+000	6	.....h.....	1489.33
	685	6.86	-2.98621E-002	-2.20311E-007	0.00000E+000	-3.00053E-002	0.00000E+000	6	.....h.....	1489.33
	687	6.88	-2.58577E-002	-1.64353E-007	0.00000E+000	-2.60042E-002	0.00000E+000	6	.....h.....	1489.33
	689	6.9	-2.18642E-002	-1.19070E-007	0.00000E+000	-2.20032E-002	0.00000E+000	6	.....h.....	1489.33
	691	6.92	-1.78732E-002	-5.82847E-008	0.00000E+000	-1.80021E-002	0.00000E+000	6	.....h.....	1489.33
	693	6.94	-1.38838E-002	-1.55525E-009	0.00000E+000	-1.40010E-002	0.00000E+000	6	.....h.....	1489.33
	695	6.96	-9.88363E-003	4.64362E-008	0.00000E+000	-9.99995E-003	0.00000E+000	6	.....h.....	1489.33
	697	6.98	-5.88928E-003	9.58986E-008	0.00000E+000	-5.99888E-003	0.00000E+000	6	.....h.....	1489.33
	699	7	-1.90077E-003	1.57726E-007	0.00000E+000	-1.99781E-003	0.00000E+000	6	.....h.....	1489.33
	701	7.02	2.11193E-003	2.29633E-007	0.00000E+000	2.00326E-003	0.00000E+000	6	.....h.....	1489.33
	703	7.04	6.07708E-003	2.85246E-007	0.00000E+000	6.00433E-003	0.00000E+000	6	.....h.....	1489.33
	705	7.06	1.00940E-002	3.46980E-007	0.00000E+000	1.00054E-002	0.00000E+000	6	.....h.....	1489.33
	707	7.08	1.40833E-002	3.99819E-007	0.00000E+000	1.39940E-002	0.00000E+000	6	.....h.....	1489.33
	709	7.1	1.80868E-002	4.59420E-007	0.00000E+000	1.79950E-002	0.00000E+000	6	.....h.....	1489.33
	711	7.12	2.20904E-002	5.14201E-007	0.00000E+000	2.19961E-002	0.00000E+000	6	.....h.....	1489.33
	713	7.14	2.60872E-002	5.69638E-007	0.00000E+000	2.59972E-002	0.00000E+000	6	.....h.....	1489.33
	715	7.16	3.00924E-002	6.40065E-007	0.00000E+000	2.99982E-002	0.00000E+000	6	.....h.....	1489.33
	717	7.18	3.40726E-002	6.86208E-007	0.00000E+000	3.39993E-002	0.00000E+000	6	.....h.....	1489.33
	719	7.2	3.80586E-002	7.44294E-007	0.00000E+000	3.80004E-002	0.00000E+000	6	....ih.....	1489.33
	721	7.22	4.20788E-002	8.00612E-007	0.00000E+000	4.20014E-002	0.00000E+000	6	....ih.....	1489.33
	723	7.24	4.60498E-002	8.77250E-007	0.00000E+000	4.60025E-002	0.00000E+000	6	....ih..i..	1489.33
	725	7.26	5.00483E-002	1.33437E-006	0.00000E+000	5.00036E-002	0.00000E+000	7	.....h.....	1489.33
	727	7.28	5.40852E-002	1.55886E-006	0.00000E+000	5.40047E-002	0.00000E+000	7	...........	1489.33
	729	7.3	5.80695E-002	1.58622E-006	0.00000E+000	5.79932E-002	0.00000E+000	7	...........	1489.33
	731	7.32	6.20739E-002	1.65247E-006	0.00000E+000	6.19943E-002	0.00000E+000	7	...........	1489.33
	733	7.34	6.60774E-002	1.68023E-006	0.00000E+000	6.59954E-002	0.00000E+000	7	...........	1489.33
	735	7.36	7.00860E-002	1.73936E-006	0.00000E+000	6.99964E-002	0.00000E+000	7	...........	1489.33
	737	7.38	7.41029E-002	1.79535E-006	0.00000E+000	7.39975E-002	0.00000E+000	7	...........	1489.33
	739	7.4	7.81047E-002	1.83189E-006	0.00000E+000	7.79986E-002	0.00000E+000	7	...........	1489.33
	741	7.42	8.21057E-002	1.86643E-006	0.00000E+000	8.19996E-002	0.00000E+000	7	...........	1489.33
	743	7.44	8.60917E-002	1.92552E-006	0.00000E+000	8.60007E-002	0.00000E+000	7	...........	1489.33
	745	7.46	9.01111E-002	1.99782E-006	0.00000E+000	9.00018E-002	0.00000E+000	7	...........	1489.33
	747	7.48	9.41021E-002	2.04230E-006	0.00000E+000	9.40029E-002	0.00000E+000	7	...........	1489.33
	749	7.5	9.80948E-002	2.09667E-006	0.00000E+000	9.80039E-002	0.00000E+000	7	...........	1489.33
	751	7.52	1.02118E-001	2.18141E-006	0.00000E+000	1.02005E-001	0.00000E+000	7	...........	1489.33
	753	7.54	1.06124E-001	2.29294E-006	0.00000E+000	1.05994E-001	0.00000E+000	7	...........	1489.33
	755	7.56	1.10111E-001	2.36113E-006	0.00000E+000	1.09995E-001	0.00000E+000	7	...........	1489.33
	757	7.58	1.14109E-001	2.42439E-006	0.00000E+000	1.13996E-001	0.00000E+000	7	...........	1489.33
	759	7.6	1.18108E-001	2.50112E-006	0.00000E+000	1.17997E-001	0.00000E+000	7	...........	1489.33
	761	7.62	1.22109E-001	2.62084E-006	0.00000E+000	1.21998E-001	0.00000E+000	7	.....h.....	1489.42
	763	7.64	1.26136E-001	2.74370E-006	0.00000E+000	1.25999E-001	0.00000E+000	7	.....h.....	1489.42
	765	7.66	1.30136E-001	2.84206E-006	0.00000E+000	1.30000E-001	0.00000E+000	7	.....h.....	1489.42
[...]
	13771	137.72	-1.41975E-001	-3.85368E-007	0.00000E+000	-1.41998E-001	0.00000E+000	7	.....h.....	1489.33
	13773	137.74	-1.45971E-001	-4.29010E-007	0.00000E+000	-1.45999E-001	0.00000E+000	7	.....h.....	1489.33
	13775	137.76	-1.49970E-001	-5.14733E-007	0.00000E+000	-1.50000E-001	0.00000E+000	7	...........	1489.33
	13777	137.78	-1.54161E-001	7.19452E-007	0.00000E+000	-1.54001E-001	0.00000E+000	6	....ih..i..	1489.33
	13779	137.8	-1.58194E-001	6.21334E-007	0.00000E+000	-1.58002E-001	0.00000E+000	6	....ih..i..	1489.33
	13781	137.82	-1.62190E-001	5.70488E-007	0.00000E+000	-1.62003E-001	0.00000E+000	6	....ih..i..	1489.33
	13783	137.84	-1.66182E-001	4.91729E-007	0.00000E+000	-1.66004E-001	0.00000E+000	6	....ih.....	1489.33
	13785	137.86	-1.70202E-001	4.30210E-007	0.00000E+000	-1.70005E-001	0.00000E+000	6	.....h.....	1489.33
	13787	137.88	-1.74200E-001	3.70147E-007	0.00000E+000	-1.74006E-001	0.00000E+000	6	.....h.....	1489.33
	13789	137.9	-1.78162E-001	2.94500E-007	0.00000E+000	-1.77995E-001	0.00000E+000	6	.....h.....	1489.33
	13791	137.92	-1.82169E-001	2.21799E-007	0.00000E+000	-1.81996E-001	0.00000E+000	6	.....h.....	1489.33
	13793	137.94	-1.86173E-001	1.35778E-007	0.00000E+000	-1.85997E-001	0.00000E+000	6	.....h.....	1489.33
	13795	137.96	-1.90156E-001	6.43378E-008	0.00000E+000	-1.89998E-001	0.00000E+000	6	.....h.....	1489.33
	13797	137.98	-1.94140E-001	-4.09375E-008	0.00000E+000	-1.93999E-001	0.00000E+000	6	.....h.....	1489.33
	13799	138	-1.98146E-001	-1.49603E-007	0.00000E+000	-1.98000E-001	0.00000E+000	6	.....h.....	1489.33
	13801	138.02	-2.02135E-001	-2.54842E-007	0.00000E+000	-2.02001E-001	0.00000E+000	6	.....h.....	1489.33
	13803	138.04	-2.06128E-001	-3.71183E-007	0.00000E+000	-2.06002E-001	0.00000E+000	6	.....h.....	1489.33
	13805	138.06	-2.10138E-001	-5.14370E-007	0.00000E+000	-2.10003E-001	0.00000E+000	6	.....h..i..	1489.33
	13807	138.08	-2.14101E-001	-6.64526E-007	0.00000E+000	-2.14004E-001	0.00000E+000	6	....ih..i..	1489.33
	13809	138.1	-2.18121E-001	-8.17600E-007	0.00000E+000	-2.18006E-001	0.00000E+000	6	....ih..i..	1489.33
	13811	138.12	-2.22083E-001	-9.55663E-007	0.00000E+000	-2.21994E-001	0.00000E+000	6	....ih..i..	1489.33
	13813	138.14	-2.26014E-001	-2.90939E-006	0.00000E+000	-2.25995E-001	0.00000E+000	7	...........	1489.33
	13815	138.16	-2.29993E-001	-3.22397E-006	0.00000E+000	-2.29996E-001	0.00000E+000	7	...........	1489.33
	13817	138.18	-2.34019E-001	-3.57058E-006	0.00000E+000	-2.33997E-001	0.00000E+000	7	...........	1489.33
	13819	138.2	-2.38026E-001	-3.97481E-006	0.00000E+000	-2.37998E-001	0.00000E+000	7	...........	1489.33
	13821	138.22	-2.42018E-001	-4.42341E-006	0.00000E+000	-2.41999E-001	0.00000E+000	7	...........	1489.33
	13823	138.24	-2.46030E-001	-4.85302E-006	0.00000E+000	-2.46001E-001	0.00000E+000	7	...........	1489.33
	13825	138.26	-2.50036E-001	-5.32848E-006	0.00000E+000	-2.50002E-001	0.00000E+000	7	...........	1489.33
	13827	138.28	-2.54026E-001	-5.91655E-006	0.00000E+000	-2.54003E-001	0.00000E+000	7	.....h.....	1489.33
	13829	138.3	-2.58038E-001	-6.49635E-006	0.00000E+000	-2.58004E-001	0.00000E+000	7	.....h.....	1489.33
	13831	138.32	-2.62042E-001	-7.16457E-006	0.00000E+000	-2.62005E-001	0.00000E+000	7	.....h.....	1489.33
	13833	138.34	-2.66044E-001	-7.89008E-006	0.00000E+000	-2.66006E-001	0.00000E+000	7	.....h..i..	1489.33
	13835	138.36	-2.70052E-001	-8.61127E-006	0.00000E+000	-2.69994E-001	0.00000E+000	7	....ih..i..	1489.33
	13837	138.38	-2.73935E-001	-8.54961E-006	0.00000E+000	-2.73996E-001	0.00000E+000	8	...........	1489.33
	13839	138.4	-2.77924E-001	-9.25169E-006	0.00000E+000	-2.77997E-001	0.00000E+000	8	...........	1489.33
	13841	138.42	-2.81922E-001	-1.00407E-005	0.00000E+000	-2.81998E-001	0.00000E+000	8	...........	1489.33
	13843	138.44	-2.85906E-001	-1.07662E-005	0.00000E+000	-2.85999E-001	0.00000E+000	8	...........	1489.33
	13845	138.46	-2.89933E-001	-1.15574E-005	0.00000E+000	-2.90000E-001	0.00000E+000	8	...........	1489.33
	13847	138.48	-2.93907E-001	-1.23140E-005	0.00000E+000	-2.94001E-001	0.00000E+000	8	...........	1489.33
	13849	138.5	-2.97924E-001	-1.30529E-005	0.00000E+000	-2.98002E-001	0.00000E+000	8	...........	1489.33
	13850	138.51	-2.99911E-001	-1.33543E-005	0.00000E+000	-3.00002E-001	0.00000E+000	8	...........	1489.33
CURVE21	TABLE
	Pt	T	Vf	Im	Vu	Sig	Ach	IERange	Over	Temp
	#	s	V vs. Ref.	A	V	V	V	#	bits	deg C
	13851	138.52	-2.97927E-001	-1.14680E-005	0.00000E+000	-2.98002E-001	0.00000E+000	8	...........	1489.33
	13852	138.53	-2.95921E-001	-1.03324E-005	0.00000E+000	-2.96001E-001	0.00000E+000	8	...........	1489.33
	13853	138.54	-2.93897E-001	-9.40641E-006	0.00000E+000	-2.94001E-001	0.00000E+000	8	...........	1489.33
	13854	138.55	-2.91914E-001	-8.65586E-006	0.00000E+000	-2.92000E-001	0.00000E+000	8	...........	1489.33
	13855	138.56	-2.89907E-001	-7.97539E-006	0.00000E+000	-2.90000E-001	0.00000E+000	8	...........	1489.33
	13856	138.57	-2.87810E-001	-6.79543E-006	0.00000E+000	-2.87999E-001	0.00000E+000	7	.....h.....	1489.33
	13857	138.58	-2.85817E-001	-5.89424E-006	0.00000E+000	-2.85999E-001	0.00000E+000	7	.....h.....	1489.33
	13858	138.59	-2.83789E-001	-5.47240E-006	0.00000E+000	-2.83998E-001	0.00000E+000	7	.....h.....	1489.33
	13859	138.6	-2.81781E-001	-5.05956E-006	0.00000E+000	-2.81998E-001	0.00000E+000	7	.....h.....	1489.33
	13860	138.61	-2.79796E-001	-4.70143E-006	0.00000E+000	-2.79997E-001	0.00000E+000	7	.....h.....	1489.42
	13861	138.62	-2.77794E-001	-4.32978E-006	0.00000E+000	-2.77997E-001	0.00000E+000	7	.....h.....	1489.42
	13862	138.63	-2.75802E-001	-4.04932E-006	0.00000E+000	-2.75996E-001	0.00000E+000	7	.....h.....	1489.42
	13863	138.64	-2.73801E-001	-3.75319E-006	0.00000E+000	-2.73996E-001	0.00000E+000	7	.....h.....	1489.42
	13864	138.65	-2.71797E-001	-3.48524E-006	0.00000E+000	-2.71995E-001	0.00000E+000	7	.....h.....	1489.42
	13865	138.66	-2.69803E-001	-3.19514E-006	0.00000E+000	-2.69994E-001	0.00000E+000	7	.....h.....	1489.42
	13866	138.67	-2.67782E-001	-2.98200E-006	0.00000E+000	-2.67994E-001	0.00000E+000	7	.....h.....	1489.42
	13867	138.68	-2.65806E-001	-2.78201E-006	0.00000E+000	-2.66006E-001	0.00000E+000	7	.....h.....	1489.42
	13868	138.69	-2.63807E-001	-2.59813E-006	0.00000E+000	-2.64005E-001	0.00000E+000	7	.....h.....	1489.42
	13869	138.7	-2.61814E-001	-2.40106E-006	0.00000E+000	-2.62005E-001	0.00000E+000	7	.....h.....	1489.42
	13870	138.71	-2.59825E-001	-2.22765E-006	0.00000E+000	-2.60004E-001	0.00000E+000	7	.....h.....	1489.42
	13871	138.72	-2.57789E-001	-2.06654E-006	0.00000E+000	-2.58004E-001	0.00000E+000	7	.....h.....	1489.42
	13872	138.73	-2.55789E-001	-1.92541E-006	0.00000E+000	-2.56003E-001	0.00000E+000	7	.....h.....	1489.42
	13873	138.74	-2.53807E-001	-1.79322E-006	0.00000E+000	-2.54003E-001	0.00000E+000	7	.....h.....	1489.42
	13874	138.75	-2.51796E-001	-1.67126E-006	0.00000E+000	-2.52002E-001	0.00000E+000	7	.....h.....	1489.42
	13875	138.76	-2.49810E-001	-1.48432E-006	0.00000E+000	-2.50002E-001	0.00000E+000	7	.....h.....	1489.42
	13876	138.77	-2.47812E-001	-1.39254E-006	0.00000E+000	-2.48001E-001	0.00000E+000	7	.....h.....	1489.42
	13877	138.78	-2.45807E-001	-1.30972E-006	0.00000E+000	-2.46001E-001	0.00000E+000	7	.....h.....	1489.42
	13878	138.79	-2.43826E-001	-1.23718E-006	0.00000E+000	-2.44000E-001	0.00000E+000	7	.....h.....	1489.42
	13879	138.8	-2.41799E-001	-1.10757E-006	0.00000E+000	-2.41999E-001	0.00000E+000	7	.....h.....	1489.42
	13880	138.81	-2.39794E-001	-1.04801E-006	0.00000E+000	-2.39999E-001	0.00000E+000	7	.....h.....	1489.42
	13881	138.82	-2.37810E-001	-1.04115E-006	0.00000E+000	-2.37998E-001	0.00000E+000	7	.....h.....	1489.42
	13882	138.83	-2.35813E-001	-9.27143E-007	0.00000E+000	-2.35998E-001	0.00000E+000	7	.....h.....	1489.42
	13883	138.84	-2.33824E-001	-8.59781E-007	0.00000E+000	-2.33997E-001	0.00000E+000	7	.....h.....	1489.42
	13884	138.85	-2.31791E-001	-8.27409E-007	0.00000E+000	-2.31997E-001	0.00000E+000	7	.....h.....	1489.42
	13885	138.86	-2.29822E-001	-8.02938E-007	0.00000E+000	-2.29996E-001	0.00000E+000	7	.....h.....	1489.42
	13886	138.87	-2.27413E-001	-1.09451E-006	0.00000E+000	-2.27996E-001	0.00000E+000	6	....ih..i..	1489.42
	13887	138.88	-2.25781E-001	1.31954E-006	0.00000E+000	-2.25995E-001	0.00000E+000	7	.....h.....	1489.42
	13888	138.89	-2.23827E-001	-6.66254E-007	0.00000E+000	-2.23995E-001	0.00000E+000	7	.....h.....	1489.42
	13889	138.9	-2.21476E-001	-1.09451E-006	0.00000E+000	-2.21994E-001	0.00000E+000	6	....ih..i..	1489.42
	13890	138.91	-2.19785E-001	1.16474E-006	0.00000E+000	-2.20006E-001	0.00000E+000	7	.....h.....	1489.42
	13891	138.92	-2.17837E-001	-5.48098E-007	0.00000E+000	-2.18006E-001	0.00000E+000	7	.....h.....	1489.42
	13892	138.93	-2.15496E-001	-1.09451E-006	0.00000E+000	-2.16005E-001	0.00000E+000	6	....ih..i..	1489.42
	13893	138.94	-2.13784E-001	1.11677E-006	0.00000E+000	-2.14004E-001	0.00000E+000	7	.....h.....	1489.42
	13894	138.95	-2.11835E-001	-5.56076E-007	0.00000E+000	-2.12004E-001	0.00000E+000	7	.....h.....	1489.42
	13895	138.96	-2.09528E-001	-1.09451E-006	0.00000E+000	-2.10003E-001	0.00000E+000	6	....ih..i..	1489.42
	13896	138.97	-2.07786E-001	1.01950E-006	0.00000E+000	-2.08003E-001	0.00000E+000	7	.....h.....	1489.42
	13897	138.98	-2.05830E-001	-4.79776E-007	0.00000E+000	-2.06002E-001	0.00000E+000	7	.....h.....	1489.42
	13898	138.99	-2.03517E-001	-1.09451E-006	0.00000E+000	-2.04002E-001	0.00000E+000	6	....ih..i..	1489.42
	13899	139	-2.01771E-001	9.13569E-007	0.00000E+000	-2.02001E-001	0.00000E+000	7	.....h.....	1489.42
	13900	139.01	-1.99833E-001	-5.18456E-007	0.00000E+000	-2.00001E-001	0.00000E+000	7	.....h.....	1489.42
	13901	139.02	-1.97543E-001	-1.09451E-006	0.00000E+000	-1.98000E-001	0.00000E+000	6	....ih..i..	1489.42
	13902	139.03	-1.95787E-001	7.78692E-007	0.00000E+000	-1.96000E-001	0.00000E+000	7	.....h.....	1489.42
	13903	139.04	-1.93544E-001	-1.09304E-006	0.00000E+000	-1.93999E-001	0.00000E+000	6	....ih..i..	1489.42
	13904	139.05	-1.91774E-001	7.03886E-007	0.00000E+000	-1.91999E-001	0.00000E+000	7	.....h.....	1489.42
	13905	139.06	-1.89527E-001	-1.09302E-006	0.00000E+000	-1.89998E-001	0.00000E+000	6	....ih..i..	1489.42
	13906	139.07	-1.87757E-001	6.25359E-007	0.00000E+000	-1.87998E-001	0.00000E+000	7	.....h.....	1489.42
	13907	139.08	-1.85539E-001	-1.09270E-006	0.00000E+000	-1.85997E-001	0.00000E+000	6	....ih..i..	1489.42
	13908	139.09	-1.83782E-001	5.76416E-007	0.00000E+000	-1.83996E-001	0.00000E+000	7	.....h.....	1489.42
	13909	139.1	-1.81561E-001	-1.09225E-006	0.00000E+000	-1.81996E-001	0.00000E+000	6	....ih..i..	1489.42
	13910	139.11	-1.79776E-001	4.72530E-007	0.00000E+000	-1.79995E-001	0.00000E+000	7	.....h.....	1489.42
	13911	139.12	-1.77560E-001	-1.09281E-006	0.00000E+000	-1.77995E-001	0.00000E+000	6	....ih..i..	1489.42
	13912	139.13	-1.75774E-001	3.86601E-007	0.00000E+000	-1.75994E-001	0.00000E+000	7	.....h.....	1489.42
	13913	139.14	-1.73595E-001	-1.09352E-006	0.00000E+000	-1.74006E-001	0.00000E+000	6	....ih..i..	1489.42
	13914	139.15	-1.71801E-001	3.68401E-007	0.00000E+000	-1.72006E-001	0.00000E+000	7	.....h.....	1489.42
	13915	139.16	-1.69620E-001	-1.09381E-006	0.00000E+000	-1.70005E-001	0.00000E+000	6	....ih..i..	1489.42
	13916	139.17	-1.67809E-001	2.74533E-007	0.00000E+000	-1.68005E-001	0.00000E+000	7	.....h.....	1489.42
	13917	139.18	-1.65625E-001	-1.09394E-006	0.00000E+000	-1.66004E-001	0.00000E+000	6	....ih..i..	1489.42
	13918	139.19	-1.63830E-001	2.11301E-007	0.00000E+000	-1.64004E-001	0.00000E+000	7	.....h.....	1489.42
	13919	139.2	-1.61644E-001	-1.09421E-006	0.00000E+000	-1.62003E-001	0.00000E+000	6	....ih..i..	1489.42
	13920	139.21	-1.59827E-001	1.47097E-007	0.00000E+000	-1.60003E-001	0.00000E+000	7	.....h.....	1489.42
	13921	139.22	-1.57655E-001	-1.09439E-006	0.00000E+000	-1.58002E-001	0.00000E+000	6	....ih..i..	1489.42
	13922	139.23	-1.55821E-001	6.63495E-008	0.00000E+000	-1.56001E-001	0.00000E+000	7	.....h.....	1489.42
	13923	139.24	-1.53641E-001	-1.09451E-006	0.00000E+000	-1.54001E-001	0.00000E+000	6	....ih..i..	1489.42
	13924	139.25	-1.51821E-001	-3.28726E-008	0.00000E+000	-1.52000E-001	0.00000E+000	7	.....h.....	1489.42
	13925	139.26	-1.49652E-001	-1.09451E-006	0.00000E+000	-1.50000E-001	0.00000E+000	6	....ih..i..	1489.42
	13926	139.27	-1.47827E-001	-7.34313E-008	0.00000E+000	-1.47999E-001	0.00000E+000	7	.....h.....	1489.42
	13927	139.28	-1.45657E-001	-1.09451E-006	0.00000E+000	-1.45999E-001	0.00000E+000	6	....ih..i..	1489.42
	13928	139.29	-1.43817E-001	-9.42157E-008	0.00000E+000	-1.43998E-001	0.00000E+000	7	.....h.....	1489.42
	13929	139.3	-1.41672E-001	-1.09451E-006	0.00000E+000	-1.41998E-001	0.00000E+000	6	....ih..i..	1489.42
	13930	139.31	-1.39826E-001	-1.65638E-007	0.00000E+000	-1.39997E-001	0.00000E+000	7	.....h.....	1489.42
	13931	139.32	-1.37667E-001	-1.09451E-006	0.00000E+000	-1.37997E-001	0.00000E+000	6	....ih..i..	1489.42
	13932	139.33	-1.35816E-001	-2.32914E-007	0.00000E+000	-1.35996E-001	0.00000E+000	7	.....h.....	1489.42
	13933	139.34	-1.33671E-001	-1.09451E-006	0.00000E+000	-1.33996E-001	0.00000E+000	6	....ih..i..	1489.42
	13934	139.35	-1.31838E-001	-2.59999E-007	0.00000E+000	-1.31995E-001	0.00000E+000	7	.....h.....	1489.42
	13935	139.36	-1.29677E-001	-1.09451E-006	0.00000E+000	-1.29995E-001	0.00000E+000	6	....ih..i..	1489.42
	13936	139.37	-1.27821E-001	-2.55532E-007	0.00000E+000	-1.28006E-001	0.00000E+000	7	.....h.....	1489.42
	13937	139.38	-1.25685E-001	-1.09451E-006	0.00000E+000	-1.26006E-001	0.00000E+000	6	....ih..i..	1489.42
	13938	139.39	-1.23828E-001	-3.63153E-007	0.00000E+000	-1.24005E-001	0.00000E+000	7	.....h.....	1489.42
	13939	139.4	-1.21697E-001	-1.09451E-006	0.00000E+000	-1.22005E-001	0.00000E+000	6	....ih..i..	1489.42
	13940	139.41	-1.19842E-001	-3.78132E-007	0.00000E+000	-1.20004E-001	0.00000E+000	7	.....h.....	1489.42
	13941	139.42	-1.17705E-001	-1.09451E-006	0.00000E+000	-1.18004E-001	0.00000E+000	6	....ih..i..	1489.42
	13942	139.43	-1.15839E-001	-4.60076E-007	0.00000E+000	-1.16003E-001	0.00000E+000	7	.....h.....	1489.42
	13943	139.44	-1.13702E-001	-1.09451E-006	0.00000E+000	-1.14003E-001	0.00000E+000	6	....ih..i..	1489.42
	13944	139.45	-1.11858E-001	-4.94822E-007	0.00000E+000	-1.12002E-001	0.00000E+000	7	.....h.....	1489.42
	13945	139.46	-1.09692E-001	-1.09451E-006	0.00000E+000	-1.10002E-001	0.00000E+000	6	....ih..i..	1489.42
	13946	139.47	-1.07859E-001	-5.02511E-007	0.00000E+000	-1.08001E-001	0.00000E+000	7	.....h.....	1489.42
	13947	139.48	-1.05721E-001	-1.09451E-006	0.00000E+000	-1.06001E-001	0.00000E+000	6	....ih..i..	1489.42
	13948	139.49	-1.03870E-001	-5.38372E-007	0.00000E+000	-1.04000E-001	0.00000E+000	7	.....h.....	1489.42
	13949	139.5	-1.01714E-001	-1.09451E-006	0.00000E+000	-1.02000E-001	0.00000E+000	6	....ih..i..	1489.42
	13950	139.51	-9.98521E-002	-5.63709E-007	0.00000E+000	-9.99990E-002	0.00000E+000	7	.....h.....	1489.42
	13951	139.52	-9.77210E-002	-1.09451E-006	0.00000E+000	-9.79985E-002	0.00000E+000	6	....ih..i..	1489.42
	13952	139.53	-9.58736E-002	-5.88036E-007	0.00000E+000	-9.59979E-002	0.00000E+000	7	.....h.....	1489.42
	13953	139.54	-9.37399E-002	-1.09451E-006	0.00000E+000	-9.39974E-002	0.00000E+000	6	....ih..i..	1489.42
	13954	139.55	-9.18575E-002	-5.90822E-007	0.00000E+000	-9.19969E-002	0.00000E+000	7	.....h.....	1489.42
	13955	139.56	-8.97548E-002	-1.09451E-006	0.00000E+000	-8.99963E-002	0.00000E+000	6	....ih..i..	1489.42
	13956	139.57	-8.78590E-002	-6.20263E-007	0.00000E+000	-8.79958E-002	0.00000E+000	7	.....h.....	1489.42
	13957	139.58	-8.57454E-002	-1.09451E-006	0.00000E+000	-8.59953E-002	0.00000E+000	6	....ih..i..	1489.42
	13958	139.59	-8.38738E-002	-6.18638E-007	0.00000E+000	-8.39947E-002	0.00000E+000	7	.....h.....	1489.42
	13959	139.6	-8.17486E-002	-1.09451E-006	0.00000E+000	-8.19942E-002	0.00000E+000	6	....ih..i..	1489.42
	13960	139.61	-7.98911E-002	-6.24627E-007	0.00000E+000	-8.00062E-002	0.00000E+000	7	.....h.....	1489.24
	13961	139.62	-7.77751E-002	-1.09451E-006	0.00000E+000	-7.80056E-002	0.00000E+000	6	....ih..i..	1489.24
	13962	139.63	-7.58768E-002	-6.04349E-007	0.00000E+000	-7.60051E-002	0.00000E+000	7	.....h.....	1489.24
	13963	139.64	-7.37732E-002	-1.09451E-006	0.00000E+000	-7.40046E-002	0.00000E+000	6	....ih..i..	1489.24
	13964	139.65	-7.18999E-002	-6.32276E-007	0.00000E+000	-7.20040E-002	0.00000E+000	7	.....h.....	1489.24
	13965	139.66	-6.97814E-002	-1.09451E-006	0.00000E+000	-7.00035E-002	0.00000E+000	6	....ih..i..	1489.24
	13966	139.67	-6.78872E-002	-6.36690E-007	0.00000E+000	-6.80030E-002	0.00000E+000	7	.....h.....	1489.24
	13967	139.68	-6.57778E-002	-1.09451E-006	0.00000E+000	-6.60024E-002	0.00000E+000	6	....ih..i..	1489.24
	13968	139.69	-6.38912E-002	-6.18649E-007	0.00000E+000	-6.40019E-002	0.00000E+000	7	.....h.....	1489.24
	13969	139.7	-6.17701E-002	-1.09451E-006	0.00000E+000	-6.20013E-002	0.00000E+000	6	....ih..i..	1489.24
	13970	139.71	-5.98869E-002	-5.95469E-007	0.00000E+000	-6.00008E-002	0.00000E+000	7	.....h.....	1489.24
	13971	139.72	-5.78058E-002	-1.09451E-006	0.00000E+000	-5.80003E-002	0.00000E+000	6	....ih..i..	1489.24
	13972	139.73	-5.59050E-002	-5.98719E-007	0.00000E+000	-5.59997E-002	0.00000E+000	7	.....h.....	1489.24
	13973	139.74	-5.38081E-002	-1.09451E-006	0.00000E+000	-5.39992E-002	0.00000E+000	6	....ih..i..	1489.24
	13974	139.75	-5.18998E-002	-5.84925E-007	0.00000E+000	-5.19987E-002	0.00000E+000	7	.....h.....	1489.24
	13975	139.76	-4.97737E-002	-1.09451E-006	0.00000E+000	-4.99981E-002	0.00000E+000	6	....ih..i..	1489.24
	13976	139.77	-4.78921E-002	-5.57927E-007	0.00000E+000	-4.79976E-002	0.00000E+000	7	.....h.....	1489.24
	13977	139.78	-4.58136E-002	-1.09451E-006	0.00000E+000	-4.59971E-002	0.00000E+000	6	....ih..i..	1489.24
	13978	139.79	-4.39195E-002	-5.49946E-007	0.00000E+000	-4.39965E-002	0.00000E+000	7	.....h.....	1489.24
	13979	139.8	-4.18201E-002	-1.09451E-006	0.00000E+000	-4.19960E-002	0.00000E+000	6	....ih..i..	1489.24
	13980	139.81	-3.99234E-002	-5.13144E-007	0.00000E+000	-3.99955E-002	0.00000E+000	7	.....h.....	1489.24
	13981	139.82	-3.78132E-002	-1.09451E-006	0.00000E+000	-3.79949E-002	0.00000E+000	6	....ih..i..	1489.24
	13982	139.83	-3.59241E-002	-4.61832E-007	0.00000E+000	-3.59944E-002	0.00000E+000	7	.....h.....	1489.24
	13983	139.84	-3.38289E-002	-1.09451E-006	0.00000E+000	-3.40064E-002	0.00000E+000	6	....ih..i..	1489.24
	13984	139.85	-3.19381E-002	-4.89627E-007	0.00000E+000	-3.20058E-002	0.00000E+000	7	.....h.....	1489.24
	13985	139.86	-2.98354E-002	-1.09451E-006	0.00000E+000	-3.00053E-002	0.00000E+000	6	....ih..i..	1489.24
	13986	139.87	-2.79396E-002	-4.12753E-007	0.00000E+000	-2.80048E-002	0.00000E+000	7	.....h.....	1489.24
	13987	139.88	-2.58227E-002	-1.09451E-006	0.00000E+000	-2.60042E-002	0.00000E+000	6	....ih..i..	1489.24
	13988	139.89	-2.39185E-002	-3.47898E-007	0.00000E+000	-2.40037E-002	0.00000E+000	7	...........	1489.24
	13989	139.9	-2.18341E-002	-1.09451E-006	0.00000E+000	-2.20032E-002	0.00000E+000	6	....ih..i..	1489.24
	13990	139.91	-1.99225E-002	-2.81974E-007	0.00000E+000	-2.00026E-002	0.00000E+000	7	...........	1489.24
	13991	139.92	-1.78415E-002	-1.09451E-006	0.00000E+000	-1.80021E-002	0.00000E+000	6	....ih..i..	1489.24
	13992	139.93	-1.59331E-002	-2.66290E-007	0.00000E+000	-1.60016E-002	0.00000E+000	7	...........	1489.24
	13993	139.94	-1.38513E-002	-1.09451E-006	0.00000E+000	-1.40010E-002	0.00000E+000	6	....ih..i..	1489.24
	13994	139.95	-1.19104E-002	-2.45200E-007	0.00000E+000	-1.20005E-002	0.00000E+000	7	...........	1489.24
	13995	139.96	-9.82522E-003	-1.09451E-006	0.00000E+000	-9.99995E-003	0.00000E+000	6	....ih..i..	1489.24
	13996	139.97	-7.93610E-003	-1.78044E-007	0.00000E+000	-7.99942E-003	0.00000E+000	7	...........	1489.24
	13997	139.98	-5.83922E-003	-1.09451E-006	0.00000E+000	-5.99888E-003	0.00000E+000	6	....ih..i..	1489.24
	13998	139.99	-3.95177E-003	-1.58567E-007	0.00000E+000	-3.99835E-003	0.00000E+000	7	...........	1489.24
	13999	140	-1.85822E-003	-1.09451E-006	0.00000E+000	-1.99781E-003	0.00000E+000	6	....ih..i..	1489.24
	14000	140.01	6.34423E-005	-8.34158E-008	0.00000E+000	2.72319E-006	0.00000E+000	7	...........	1489.24