File: input/ECSA_test/CV_ECSA_#1_#5.DTA
EXPLAIN
TAG	CV
TITLE	LABEL	ECSA	Test Identifier
DATE	LABEL	2/13/2024	Date
TIME	LABEL	8:49:11	Time
NOTES	NOTES	1	Notes...

PSTAT	PSTAT	IFC1010-36068	Potentiostat
VINIT	POTEN	1.00000E-001	F	Initial E (V)
VLIMIT1	POTEN	3.00000E-001	F	Scan Limit 1 (V)
VLIMIT2	POTEN	1.00000E-001	F	Scan Limit 2 (V)
VFINAL	POTEN	1.00000E-001	F	Final E (V)
SCANRATE	QUANT	4.99999E+001	A Real Number
STEPSIZE	QUANT	1.00000E+000	Step Size (mV)
CYCLES	IQUANT	3	Cycles (#)
IMODE	SELECTOR	1	I/E Range Mode
IRANGE	QUANT	3.00000E-001	Max Current (mA)
AREA	QUANT	1.00000E+000	Sample Area (cm^2)
EQDELAY	QUANT	0.00000E+000	Equil. Time (s)
IRCOMP	SELECTOR	0	IRComp
PFCOR	QUANT	5.00000E+001	PF Corr. (ohm)
SAMPLINGMODE	SELECTOR	2	Sampling Mode
EOC	QUANT	0.3246219	Open Circuit (V)
ELECTRODETYPE	SELECTOR	0	Electrode Type
STRIPPING	TOGGLE	F	Used for Stripping
SEQUENCER	TOGGLE	TRUE	Run as Sequence
PSTATMODEL	IQUANT	64	Pstat Model
PSTATSECTION	LABEL	IFC1010-36068	Pstat Section
PSTATSERIALNO	LABEL	36068	Pstat Serial Number
CTRLMODE	IQUANT	1	Control Mode
ELECTROMETER	IQUANT	0	RE=0 or CS=1
IESTAB	IQUANT	2	I/E Stability
CASPEED	IQUANT	4	Control Amp Speed
CONVENTION	IQUANT	1	Current Convention
ICHRANGE	IQUANT	2	Ich Range
ICHRANGEMODE	TOGGLE	F	Ich Auto Range
ICHOFFSETENABLE	TOGGLE	F	Ich Offset Enable
ICHOFFSET	QUANT	0	Ich Offset (V)
ICHFILTER	IQUANT	3	Ich Filter
VCHRANGE	IQUANT	2	Vch Range
VCHRANGEMODE	TOGGLE	F	Vch Auto Range
VCHOFFSETENABLE	TOGGLE	F	Vch Offset Enable
VCHOFFSET	QUANT	0	Vch Offset (V)
VCHFILTER	IQUANT	3	Vch Filter
IERANGELOWERLIMIT	IQUANT	4	I/E Range Lower Limit
IERANGEMODE	TOGGLE	F	I/E AutoRange
IERANGE	IQUANT	9	I/E Range
ACHSELECT	IQUANT	0	Ach Select
ACHRANGE	IQUANT	2	Ach Range
ACHOFFSETENABLE	TOGGLE	F	Ach Offset Enable
ACHOFFSET	QUANT	0	Ach Offset (V)
ACHFILTER	IQUANT	1	Ach Filter
SENSECABLEID	IQUANT	13	Sense Cable ID
PWRCABLEID	IQUANT	13	Power Cable ID
DCCALDATE	LABEL	8/11/2023	DC Calibration Date
ACCALDATE	LABEL	6/2/2023	AC Calibration Date
FRAMEWORKVERSION	LABEL	7.10.3	Framework Version
INSTRUMENTVERSION	LABEL	4.91	Instrument Version
COMMVERSION	LABEL	3.10	Communications Version
CPUPLDVERSION	LABEL	2.22	CPU PLD Version
CTRLPLDVERSION	LABEL	0.00	CTRL PLD Version
PSTATPLDVERSION	LABEL	0.00	PSTAT PLD Version
CURVE1	TABLE
	Pt	T	Vf	Im	Vu	Sig	Ach	IERange	Over	Temp
	#	s	V vs. Ref.	A	V	V	V	#	bits	deg C
	0	0.02	9.99989E-002	-1.00588E-005	0.00000E+000	1.00003E-001	0.00000E+000	9	...........	1467.52
	1	0.04	1.00987E-001	-9.06407E-006	0.00000E+000	1.01003E-001	0.00000E+000	9	...........	1467.52
	2	0.06	1.01986E-001	-8.82281E-006	0.00000E+000	1.02002E-001	0.00000E+000	9	...........	1467.52
	3	0.08	1.03002E-001	-8.62187E-006	0.00000E+000	1.03002E-001	0.00000E+000	9	...........	1467.52
	4	0.1	1.03989E-001	-8.45553E-006	0.00000E+000	1.04002E-001	0.00000E+000	9	...........	1467.52
	5	0.12	1.04969E-001	-8.28553E-006	0.00000E+000	1.05001E-001	0.00000E+000	9	...........	1467.52
	6	0.14	1.05969E-001	-8.13622E-006	0.00000E+000	1.06001E-001	0.00000E+000	9	...........	1467.52
	7	0.16	1.06974E-001	-7.98527E-006	0.00000E+000	1.07001E-001	0.00000E+000	9	...........	1467.52
	8	0.18	1.07978E-001	-7.84277E-006	0.00000E+000	1.08000E-001	0.00000E+000	9	...........	1467.52
	9	0.2	1.08984E-001	-7.69811E-006	0.00000E+000	1.09000E-001	0.00000E+000	9	...........	1467.52
	10	0.22	1.09995E-001	-7.55848E-006	0.00000E+000	1.10000E-001	0.00000E+000	9	...........	1467.52
	11	0.24	1.10980E-001	-7.42244E-006	0.00000E+000	1.10999E-001	0.00000E+000	9	...........	1467.52
	12	0.26	1.11969E-001	-7.29205E-006	0.00000E+000	1.11999E-001	0.00000E+000	9	...........	1467.52
	13	0.28	1.12968E-001	-7.16166E-006	0.00000E+000	1.12999E-001	0.00000E+000	9	...........	1467.52
	14	0.3	1.13967E-001	-7.03895E-006	0.00000E+000	1.13998E-001	0.00000E+000	9	...........	1467.52
	15	0.32	1.14984E-001	-6.92141E-006	0.00000E+000	1.14998E-001	0.00000E+000	9	...........	1467.52
	16	0.34	1.15991E-001	-6.79953E-006	0.00000E+000	1.15997E-001	0.00000E+000	9	...........	1467.52
	17	0.36	1.16979E-001	-6.68196E-006	0.00000E+000	1.16997E-001	0.00000E+000	9	...........	1467.52
	18	0.38	1.17975E-001	-6.56253E-006	0.00000E+000	1.17997E-001	0.00000E+000	9	...........	1467.52
	19	0.4	1.18984E-001	-6.44822E-006	0.00000E+000	1.18996E-001	0.00000E+000	9	...........	1467.52
	20	0.42	1.19984E-001	-6.33438E-006	0.00000E+000	1.19996E-001	0.00000E+000	9	...........	1467.52
	21	0.44	1.20986E-001	-6.22811E-006	0.00000E+000	1.20996E-001	0.00000E+000	9	...........	1467.52
	22	0.46	1.21995E-001	-6.11911E-006	0.00000E+000	1.21995E-001	0.00000E+000	9	...........	1467.52
	23	0.48	1.22981E-001	-6.01629E-006	0.00000E+000	1.22995E-001	0.00000E+000	9	...........	1467.52
	24	0.5	1.23974E-001	-5.91263E-006	0.00000E+000	1.23995E-001	0.00000E+000	9	...........	1467.52
	25	0.52	1.24977E-001	-5.80750E-006	0.00000E+000	1.24994E-001	0.00000E+000	9	...........	1467.52
	26	0.54	1.25976E-001	-5.70671E-006	0.00000E+000	1.25994E-001	0.00000E+000	9	...........	1467.52
	27	0.56	1.26981E-001	-5.59657E-006	0.00000E+000	1.27006E-001	0.00000E+000	9	...........	1467.52
	28	0.58	1.27988E-001	-5.51066E-006	0.00000E+000	1.28006E-001	0.00000E+000	9	...........	1467.52
	29	0.6	1.28985E-001	-5.41510E-006	0.00000E+000	1.29005E-001	0.00000E+000	9	...........	1467.52
	30	0.62	1.29987E-001	-5.31829E-006	0.00000E+000	1.30005E-001	0.00000E+000	9	...........	1467.52
	31	0.64	1.30997E-001	-5.22164E-006	0.00000E+000	1.31005E-001	0.00000E+000	9	...........	1467.52
	32	0.66	1.31996E-001	-5.13540E-006	0.00000E+000	1.32004E-001	0.00000E+000	9	...........	1467.52
	33	0.68	1.32992E-001	-5.04401E-006	0.00000E+000	1.33004E-001	0.00000E+000	9	...........	1467.52
	34	0.7	1.33979E-001	-4.95235E-006	0.00000E+000	1.34004E-001	0.00000E+000	9	...........	1467.52
	35	0.72	1.34977E-001	-4.86588E-006	0.00000E+000	1.35003E-001	0.00000E+000	9	...........	1467.52
	36	0.74	1.35973E-001	-4.77875E-006	0.00000E+000	1.36003E-001	0.00000E+000	9	...........	1467.52
	37	0.76	1.36970E-001	-4.69254E-006	0.00000E+000	1.37003E-001	0.00000E+000	9	...........	1467.52
	38	0.78	1.37975E-001	-4.60607E-006	0.00000E+000	1.38002E-001	0.00000E+000	9	...........	1467.52
	39	0.8	1.38977E-001	-4.52167E-006	0.00000E+000	1.39002E-001	0.00000E+000	9	...........	1467.52
	40	0.82	1.39968E-001	-4.44263E-006	0.00000E+000	1.40002E-001	0.00000E+000	9	...........	1467.52
	41	0.84	1.40990E-001	-4.36151E-006	0.00000E+000	1.41001E-001	0.00000E+000	9	...........	1467.52
	42	0.86	1.41985E-001	-4.28180E-006	0.00000E+000	1.42001E-001	0.00000E+000	9	...........	1467.52
	43	0.88	1.42984E-001	-4.20494E-006	0.00000E+000	1.43001E-001	0.00000E+000	9	...........	1467.52
	44	0.9	1.43983E-001	-4.12504E-006	0.00000E+000	1.44000E-001	0.00000E+000	9	...........	1467.52
	45	0.92	1.44982E-001	-4.05012E-006	0.00000E+000	1.45000E-001	0.00000E+000	9	...........	1467.52
	46	0.94	1.45979E-001	-3.96738E-006	0.00000E+000	1.46000E-001	0.00000E+000	9	...........	1467.52
	47	0.96	1.46981E-001	-3.89858E-006	0.00000E+000	1.46999E-001	0.00000E+000	9	...........	1467.52
	48	0.98	1.47983E-001	-3.82734E-006	0.00000E+000	1.47999E-001	0.00000E+000	9	...........	1467.52
	49	1	1.48973E-001	-3.76221E-006	0.00000E+000	1.48998E-001	0.00000E+000	9	...........	1467.52
	50	1.02	1.49971E-001	-3.68537E-006	0.00000E+000	1.49998E-001	0.00000E+000	9	...........	1467.52
	51	1.04	1.50964E-001	-3.61638E-006	0.00000E+000	1.50998E-001	0.00000E+000	9	...........	1467.52
	52	1.06	1.51966E-001	-3.54085E-006	0.00000E+000	1.51997E-001	0.00000E+000	9	...........	1467.52
	53	1.08	1.52962E-001	-3.46880E-006	0.00000E+000	1.52997E-001	0.00000E+000	9	...........	1467.52
	54	1.1	1.53970E-001	-3.39735E-006	0.00000E+000	1.53997E-001	0.00000E+000	9	...........	1467.52
	55	1.12	1.54980E-001	-3.33081E-006	0.00000E+000	1.54996E-001	0.00000E+000	9	...........	1467.52
	56	1.14	1.55980E-001	-3.26107E-006	0.00000E+000	1.55996E-001	0.00000E+000	9	...........	1467.52
	57	1.16	1.56987E-001	-3.19380E-006	0.00000E+000	1.56996E-001	0.00000E+000	9	...........	1467.52
	58	1.18	1.57979E-001	-3.12458E-006	0.00000E+000	1.57995E-001	0.00000E+000	9	...........	1467.52
	59	1.2	1.58960E-001	-3.05422E-006	0.00000E+000	1.58995E-001	0.00000E+000	9	...........	1467.52
	60	1.22	1.59965E-001	-2.99522E-006	0.00000E+000	1.59995E-001	0.00000E+000	9	...........	1467.52
	61	1.24	1.60964E-001	-2.92706E-006	0.00000E+000	1.60994E-001	0.00000E+000	9	...........	1467.52
	62	1.26	1.61962E-001	-2.86249E-006	0.00000E+000	1.61994E-001	0.00000E+000	9	...........	1467.52
	63	1.28	1.62973E-001	-2.78543E-006	0.00000E+000	1.63006E-001	0.00000E+000	9	...........	1467.52
	64	1.3	1.63982E-001	-2.73015E-006	0.00000E+000	1.64006E-001	0.00000E+000	9	...........	1467.52
	65	1.32	1.64966E-001	-2.66953E-006	0.00000E+000	1.65005E-001	0.00000E+000	9	...........	1467.52
	66	1.34	1.65965E-001	-2.60543E-006	0.00000E+000	1.66005E-001	0.00000E+000	9	...........	1467.52
	67	1.36	1.66990E-001	-2.53856E-006	0.00000E+000	1.67005E-001	0.00000E+000	9	...........	1467.52
	68	1.38	1.67993E-001	-2.47819E-006	0.00000E+000	1.68004E-001	0.00000E+000	9	...........	1467.52
	69	1.4	1.68984E-001	-2.42124E-006	0.00000E+000	1.69004E-001	0.00000E+000	9	...........	1467.52
	70	1.42	1.69993E-001	-2.35353E-006	0.00000E+000	1.70004E-001	0.00000E+000	9	...........	1467.52
	71	1.44	1.70987E-001	-2.29313E-006	0.00000E+000	1.71003E-001	0.00000E+000	9	...........	1467.52
	72	1.46	1.71983E-001	-2.23396E-006	0.00000E+000	1.72003E-001	0.00000E+000	9	...........	1467.52
	73	1.48	1.72989E-001	-2.17823E-006	0.00000E+000	1.73003E-001	0.00000E+000	9	...........	1467.52
	74	1.5	1.73971E-001	-2.11953E-006	0.00000E+000	1.74002E-001	0.00000E+000	9	...........	1467.52
	75	1.52	1.74973E-001	-2.06055E-006	0.00000E+000	1.75002E-001	0.00000E+000	9	...........	1467.52
	76	1.54	1.75974E-001	-2.00096E-006	0.00000E+000	1.76002E-001	0.00000E+000	9	...........	1467.52
	77	1.56	1.76959E-001	-1.94622E-006	0.00000E+000	1.77001E-001	0.00000E+000	9	...........	1467.52
	78	1.58	1.77960E-001	-1.88735E-006	0.00000E+000	1.78001E-001	0.00000E+000	9	...........	1467.52
	79	1.6	1.78960E-001	-1.83193E-006	0.00000E+000	1.79000E-001	0.00000E+000	9	...........	1467.52
	80	1.62	1.79976E-001	-1.77515E-006	0.00000E+000	1.80000E-001	0.00000E+000	9	...........	1467.52
	81	1.64	1.80988E-001	-1.71648E-006	0.00000E+000	1.81000E-001	0.00000E+000	9	...........	1467.52
	82	1.66	1.81991E-001	-1.66020E-006	0.00000E+000	1.81999E-001	0.00000E+000	9	...........	1467.52
	83	1.68	1.82985E-001	-1.60492E-006	0.00000E+000	1.82999E-001	0.00000E+000	9	...........	1467.52
	84	1.7	1.83982E-001	-1.54914E-006	0.00000E+000	1.83999E-001	0.00000E+000	9	...........	1467.52
	85	1.72	1.84980E-001	-1.48911E-006	0.00000E+000	1.84998E-001	0.00000E+000	9	...........	1467.52
	86	1.74	1.85982E-001	-1.43614E-006	0.00000E+000	1.85998E-001	0.00000E+000	9	...........	1467.52
	87	1.76	1.86978E-001	-1.38281E-006	0.00000E+000	1.86998E-001	0.00000E+000	9	...........	1467.56
	88	1.78	1.87973E-001	-1.33112E-006	0.00000E+000	1.87997E-001	0.00000E+000	9	...........	1467.61
	89	1.8	1.88965E-001	-1.27067E-006	0.00000E+000	1.88997E-001	0.00000E+000	9	...........	1467.61
	90	1.82	1.89966E-001	-1.22115E-006	0.00000E+000	1.89997E-001	0.00000E+000	9	...........	1467.61
	91	1.84	1.90962E-001	-1.16804E-006	0.00000E+000	1.90996E-001	0.00000E+000	9	...........	1467.61
	92	1.86	1.91994E-001	-1.11602E-006	0.00000E+000	1.91996E-001	0.00000E+000	9	...........	1467.61
	93	1.88	1.92994E-001	-1.07120E-006	0.00000E+000	1.92996E-001	0.00000E+000	9	...........	1467.61
	94	1.9	1.93981E-001	-1.02312E-006	0.00000E+000	1.93995E-001	0.00000E+000	9	...........	1467.61
	95	1.92	1.94969E-001	-9.70684E-007	0.00000E+000	1.94995E-001	0.00000E+000	9	...........	1467.61
	96	1.94	1.95977E-001	-9.21749E-007	0.00000E+000	1.95995E-001	0.00000E+000	9	...........	1467.61
	97	1.96	1.96972E-001	-8.64830E-007	0.00000E+000	1.96994E-001	0.00000E+000	9	...........	1467.61
	98	1.98	1.97967E-001	-8.19372E-007	0.00000E+000	1.97994E-001	0.00000E+000	9	...........	1467.61
	99	2	1.98993E-001	-7.60728E-007	0.00000E+000	1.99006E-001	0.00000E+000	9	...........	1467.61
	100	2.02	1.99984E-001	-7.17830E-007	0.00000E+000	2.00006E-001	0.00000E+000	9	...........	1467.61
	101	2.04	2.00975E-001	-6.68449E-007	0.00000E+000	2.01005E-001	0.00000E+000	9	...........	1467.61
	102	2.06	2.01979E-001	-6.22908E-007	0.00000E+000	2.02005E-001	0.00000E+000	9	...........	1467.61
	103	2.08	2.02976E-001	-5.72221E-007	0.00000E+000	2.03005E-001	0.00000E+000	9	...........	1467.61
	104	2.1	2.03973E-001	-5.27013E-007	0.00000E+000	2.04004E-001	0.00000E+000	9	...........	1467.61
	105	2.12	2.04993E-001	-4.80888E-007	0.00000E+000	2.05004E-001	0.00000E+000	9	...........	1467.61
	106	2.14	2.05989E-001	-4.29588E-007	0.00000E+000	2.06004E-001	0.00000E+000	9	...........	1467.61
	107	2.16	2.06976E-001	-3.82573E-007	0.00000E+000	2.07003E-001	0.00000E+000	9	...........	1467.61
	108	2.18	2.07982E-001	-3.35001E-007	0.00000E+000	2.08003E-001	0.00000E+000	9	...........	1467.61
	109	2.2	2.08976E-001	-2.91351E-007	0.00000E+000	2.09003E-001	0.00000E+000	9	...........	1467.61
	110	2.22	2.09972E-001	-2.49538E-007	0.00000E+000	2.10002E-001	0.00000E+000	9	...........	1467.61
	111	2.24	2.10966E-001	-2.06807E-007	0.00000E+000	2.11002E-001	0.00000E+000	9	...........	1467.61
	112	2.26	2.11974E-001	-1.60097E-007	0.00000E+000	2.12001E-001	0.00000E+000	9	...........	1467.61
	113	2.28	2.12967E-001	-1.16726E-007	0.00000E+000	2.13001E-001	0.00000E+000	9	...........	1467.61
	114	2.3	2.13956E-001	-7.24368E-008	0.00000E+000	2.14001E-001	0.00000E+000	9	...........	1467.61
	115	2.32	2.14966E-001	-2.86762E-008	0.00000E+000	2.15000E-001	0.00000E+000	9	...........	1467.61
	116	2.34	2.15962E-001	1.88123E-008	0.00000E+000	2.16000E-001	0.00000E+000	9	...........	1467.61
	117	2.36	2.16961E-001	5.47834E-008	0.00000E+000	2.17000E-001	0.00000E+000	9	...........	1467.61
	118	2.38	2.17990E-001	1.00325E-007	0.00000E+000	2.17999E-001	0.00000E+000	9	...........	1467.61
	119	2.4	2.18968E-001	1.41720E-007	0.00000E+000	2.18999E-001	0.00000E+000	9	...........	1467.61
	120	2.42	2.19970E-001	1.81837E-007	0.00000E+000	2.19999E-001	0.00000E+000	9	...........	1467.61
	121	2.44	2.20974E-001	2.26710E-007	0.00000E+000	2.20998E-001	0.00000E+000	9	...........	1467.61
	122	2.46	2.21970E-001	2.62097E-007	0.00000E+000	2.21998E-001	0.00000E+000	9	...........	1467.61
	123	2.48	2.22966E-001	3.07165E-007	0.00000E+000	2.22998E-001	0.00000E+000	9	...........	1467.61
	124	2.5	2.23973E-001	3.44416E-007	0.00000E+000	2.23997E-001	0.00000E+000	9	...........	1467.61
	125	2.52	2.24957E-001	3.86591E-007	0.00000E+000	2.24997E-001	0.00000E+000	9	...........	1467.61
	126	2.54	2.25952E-001	4.26206E-007	0.00000E+000	2.25997E-001	0.00000E+000	9	...........	1467.61
	127	2.56	2.26950E-001	4.63958E-007	0.00000E+000	2.26996E-001	0.00000E+000	9	...........	1467.61
	128	2.58	2.27962E-001	5.06300E-007	0.00000E+000	2.27996E-001	0.00000E+000	9	...........	1467.61
	129	2.6	2.28958E-001	5.49643E-007	0.00000E+000	2.28996E-001	0.00000E+000	9	...........	1467.61
	130	2.62	2.29955E-001	5.84640E-007	0.00000E+000	2.29995E-001	0.00000E+000	9	...........	1467.61
	131	2.64	2.30960E-001	6.25508E-007	0.00000E+000	2.30995E-001	0.00000E+000	9	...........	1467.61
	132	2.66	2.31964E-001	6.58669E-007	0.00000E+000	2.31994E-001	0.00000E+000	9	...........	1467.61
	133	2.68	2.32967E-001	6.98618E-007	0.00000E+000	2.32994E-001	0.00000E+000	9	...........	1467.61
	134	2.7	2.33969E-001	7.37983E-007	0.00000E+000	2.33994E-001	0.00000E+000	9	...........	1467.61
	135	2.72	2.34970E-001	7.82968E-007	0.00000E+000	2.35006E-001	0.00000E+000	9	...........	1467.61
	136	2.74	2.35963E-001	8.09703E-007	0.00000E+000	2.36006E-001	0.00000E+000	9	...........	1467.61
	137	2.76	2.36974E-001	8.45591E-007	0.00000E+000	2.37005E-001	0.00000E+000	9	...........	1467.61
	138	2.78	2.37969E-001	8.76860E-007	0.00000E+000	2.38005E-001	0.00000E+000	9	...........	1467.61
	139	2.8	2.38970E-001	9.15419E-007	0.00000E+000	2.39005E-001	0.00000E+000	9	...........	1467.61
	140	2.82	2.39979E-001	9.46771E-007	0.00000E+000	2.40004E-001	0.00000E+000	9	...........	1467.61
	141	2.84	2.40970E-001	9.89030E-007	0.00000E+000	2.41004E-001	0.00000E+000	9	...........	1467.61
	142	2.86	2.41966E-001	1.01863E-006	0.00000E+000	2.42004E-001	0.00000E+000	9	...........	1467.61
	143	2.88	2.42973E-001	1.05310E-006	0.00000E+000	2.43003E-001	0.00000E+000	9	...........	1467.61
	144	2.9	2.43985E-001	1.08932E-006	0.00000E+000	2.44003E-001	0.00000E+000	9	...........	1467.61
	145	2.92	2.44978E-001	1.12716E-006	0.00000E+000	2.45002E-001	0.00000E+000	9	...........	1467.61
	146	2.94	2.45968E-001	1.15717E-006	0.00000E+000	2.46002E-001	0.00000E+000	9	...........	1467.61
	147	2.96	2.46963E-001	1.19167E-006	0.00000E+000	2.47002E-001	0.00000E+000	9	...........	1467.61
	148	2.98	2.47960E-001	1.22350E-006	0.00000E+000	2.48001E-001	0.00000E+000	9	...........	1467.61
	149	3	2.48962E-001	1.25451E-006	0.00000E+000	2.49001E-001	0.00000E+000	9	...........	1467.61
	150	3.02	2.49975E-001	1.29132E-006	0.00000E+000	2.50001E-001	0.00000E+000	9	...........	1467.61
	151	3.04	2.50971E-001	1.32804E-006	0.00000E+000	2.51000E-001	0.00000E+000	9	...........	1467.61
	152	3.06	2.51959E-001	1.35027E-006	0.00000E+000	2.52000E-001	0.00000E+000	9	...........	1467.61
	153	3.08	2.52949E-001	1.38735E-006	0.00000E+000	2.53000E-001	0.00000E+000	9	...........	1467.61
	154	3.1	2.53944E-001	1.42049E-006	0.00000E+000	2.53999E-001	0.00000E+000	9	...........	1467.61
	155	3.12	2.54943E-001	1.44911E-006	0.00000E+000	2.54999E-001	0.00000E+000	9	...........	1467.61
	156	3.14	2.55966E-001	1.48275E-006	0.00000E+000	2.55999E-001	0.00000E+000	9	...........	1467.61
	157	3.16	2.56969E-001	1.50848E-006	0.00000E+000	2.56998E-001	0.00000E+000	9	...........	1467.61
	158	3.18	2.57973E-001	1.53945E-006	0.00000E+000	2.57998E-001	0.00000E+000	9	...........	1467.61
	159	3.2	2.58972E-001	1.56921E-006	0.00000E+000	2.58998E-001	0.00000E+000	9	...........	1467.61
	160	3.22	2.59971E-001	1.59965E-006	0.00000E+000	2.59997E-001	0.00000E+000	9	...........	1467.61
	161	3.24	2.60964E-001	1.62916E-006	0.00000E+000	2.60997E-001	0.00000E+000	9	...........	1467.61
	162	3.26	2.61969E-001	1.66514E-006	0.00000E+000	2.61997E-001	0.00000E+000	9	...........	1467.61
	163	3.28	2.62975E-001	1.69791E-006	0.00000E+000	2.62996E-001	0.00000E+000	9	...........	1467.61
	164	3.3	2.63972E-001	1.72667E-006	0.00000E+000	2.63996E-001	0.00000E+000	9	...........	1467.61
	165	3.32	2.64970E-001	1.75778E-006	0.00000E+000	2.64995E-001	0.00000E+000	9	...........	1467.61
	166	3.34	2.65973E-001	1.78701E-006	0.00000E+000	2.65995E-001	0.00000E+000	9	...........	1467.61
	167	3.36	2.66956E-001	1.81979E-006	0.00000E+000	2.66995E-001	0.00000E+000	9	...........	1467.61
	168	3.38	2.67955E-001	1.84538E-006	0.00000E+000	2.67994E-001	0.00000E+000	9	...........	1467.61
	169	3.4	2.68986E-001	1.87398E-006	0.00000E+000	2.68994E-001	0.00000E+000	9	...........	1467.61
	170	3.42	2.69982E-001	1.90119E-006	0.00000E+000	2.69994E-001	0.00000E+000	9	...........	1467.61
	171	3.44	2.70985E-001	1.94754E-006	0.00000E+000	2.71006E-001	0.00000E+000	9	...........	1467.61
	172	3.46	2.71982E-001	1.97001E-006	0.00000E+000	2.72006E-001	0.00000E+000	9	...........	1467.61
	173	3.48	2.72975E-001	1.99897E-006	0.00000E+000	2.73005E-001	0.00000E+000	9	...........	1467.61
	174	3.5	2.73971E-001	2.02499E-006	0.00000E+000	2.74005E-001	0.00000E+000	9	...........	1467.61
	175	3.52	2.74968E-001	2.05987E-006	0.00000E+000	2.75004E-001	0.00000E+000	9	...........	1467.61
	176	3.54	2.75976E-001	2.08588E-006	0.00000E+000	2.76004E-001	0.00000E+000	9	...........	1467.61
	177	3.56	2.76973E-001	2.12283E-006	0.00000E+000	2.77004E-001	0.00000E+000	9	...........	1467.61
	178	3.58	2.77970E-001	2.15204E-006	0.00000E+000	2.78003E-001	0.00000E+000	9	...........	1467.61
	179	3.6	2.78963E-001	2.17922E-006	0.00000E+000	2.79003E-001	0.00000E+000	9	...........	1467.61
	180	3.62	2.79962E-001	2.21018E-006	0.00000E+000	2.80003E-001	0.00000E+000	9	...........	1467.61
	181	3.64	2.80960E-001	2.23836E-006	0.00000E+000	2.81002E-001	0.00000E+000	9	...........	1467.61
	182	3.66	2.81968E-001	2.27052E-006	0.00000E+000	2.82002E-001	0.00000E+000	9	...........	1467.61
	183	3.68	2.82973E-001	2.29904E-006	0.00000E+000	2.83002E-001	0.00000E+000	9	...........	1467.61
	184	3.7	2.83984E-001	2.32858E-006	0.00000E+000	2.84001E-001	0.00000E+000	9	...........	1467.61
	185	3.72	2.84975E-001	2.35554E-006	0.00000E+000	2.85001E-001	0.00000E+000	9	...........	1467.61
	186	3.74	2.85972E-001	2.38497E-006	0.00000E+000	2.86001E-001	0.00000E+000	9	...........	1467.61
	187	3.76	2.86967E-001	2.41385E-006	0.00000E+000	2.87000E-001	0.00000E+000	9	...........	1467.66
	188	3.78	2.87980E-001	2.44534E-006	0.00000E+000	2.88000E-001	0.00000E+000	9	...........	1467.70
	189	3.8	2.88978E-001	2.47247E-006	0.00000E+000	2.89000E-001	0.00000E+000	9	...........	1467.70
	190	3.82	2.89971E-001	2.50591E-006	0.00000E+000	2.89999E-001	0.00000E+000	9	...........	1467.70
	191	3.84	2.90956E-001	2.53526E-006	0.00000E+000	2.90999E-001	0.00000E+000	9	...........	1467.70
	192	3.86	2.91963E-001	2.56853E-006	0.00000E+000	2.91999E-001	0.00000E+000	9	...........	1467.70
	193	3.88	2.92959E-001	2.59437E-006	0.00000E+000	2.92998E-001	0.00000E+000	9	...........	1467.70
	194	3.9	2.93951E-001	2.62614E-006	0.00000E+000	2.93998E-001	0.00000E+000	9	...........	1467.70
	195	3.92	2.94981E-001	2.65822E-006	0.00000E+000	2.94998E-001	0.00000E+000	9	...........	1467.70
	196	3.94	2.95973E-001	2.68220E-006	0.00000E+000	2.95997E-001	0.00000E+000	9	...........	1467.70
	197	3.96	2.96961E-001	2.71164E-006	0.00000E+000	2.96997E-001	0.00000E+000	9	...........	1467.70
	198	3.98	2.97968E-001	2.74663E-006	0.00000E+000	2.97996E-001	0.00000E+000	9	...........	1467.70
	199	4	2.98965E-001	2.77281E-006	0.00000E+000	2.98996E-001	0.00000E+000	9	...........	1467.70
	200	4.02	2.99969E-001	2.80542E-006	0.00000E+000	2.99996E-001	0.00000E+000	9	...........	1467.70
	201	4.04	2.98995E-001	1.31956E-006	0.00000E+000	2.98996E-001	0.00000E+000	9	...........	1467.70
	202	4.06	2.97998E-001	1.12237E-006	0.00000E+000	2.97996E-001	0.00000E+000	9	...........	1467.70
	203	4.08	2.96995E-001	9.90031E-007	0.00000E+000	2.96997E-001	0.00000E+000	9	...........	1467.70
	204	4.1	2.96006E-001	8.71964E-007	0.00000E+000	2.95997E-001	0.00000E+000	9	...........	1467.70
	205	4.12	2.95011E-001	7.71367E-007	0.00000E+000	2.94998E-001	0.00000E+000	9	...........	1467.70
	206	4.14	2.93982E-001	6.84402E-007	0.00000E+000	2.93998E-001	0.00000E+000	9	...........	1467.70
	207	4.16	2.92983E-001	6.01360E-007	0.00000E+000	2.92998E-001	0.00000E+000	9	...........	1467.70
	208	4.18	2.91987E-001	5.22908E-007	0.00000E+000	2.91999E-001	0.00000E+000	9	...........	1467.70
	209	4.2	2.90974E-001	4.51189E-007	0.00000E+000	2.90999E-001	0.00000E+000	9	...........	1467.70
	210	4.22	2.89992E-001	3.85673E-007	0.00000E+000	2.89999E-001	0.00000E+000	9	...........	1467.70
	211	4.24	2.88994E-001	3.22661E-007	0.00000E+000	2.89000E-001	0.00000E+000	9	...........	1467.70
	212	4.26	2.88000E-001	2.56116E-007	0.00000E+000	2.88000E-001	0.00000E+000	9	...........	1467.70
	213	4.28	2.86994E-001	2.01422E-007	0.00000E+000	2.87000E-001	0.00000E+000	9	...........	1467.70
	214	4.3	2.86003E-001	1.35572E-007	0.00000E+000	2.86001E-001	0.00000E+000	9	...........	1467.70
	215	4.32	2.85004E-001	8.18521E-008	0.00000E+000	2.85001E-001	0.00000E+000	9	...........	1467.70
	216	4.34	2.84009E-001	2.32913E-008	0.00000E+000	2.84001E-001	0.00000E+000	9	...........	1467.70
	217	4.36	2.83000E-001	-2.75355E-008	0.00000E+000	2.83002E-001	0.00000E+000	9	...........	1467.70
	218	4.38	2.81992E-001	-8.10331E-008	0.00000E+000	2.82002E-001	0.00000E+000	9	...........	1467.70
	219	4.4	2.80987E-001	-1.31804E-007	0.00000E+000	2.81002E-001	0.00000E+000	9	...........	1467.70
	220	4.42	2.79985E-001	-1.83800E-007	0.00000E+000	2.80003E-001	0.00000E+000	9	...........	1467.70
	221	4.44	2.78988E-001	-2.34126E-007	0.00000E+000	2.79003E-001	0.00000E+000	9	...........	1467.70
	222	4.46	2.77991E-001	-2.85259E-007	0.00000E+000	2.78003E-001	0.00000E+000	9	...........	1467.70
	223	4.48	2.76994E-001	-3.31857E-007	0.00000E+000	2.77004E-001	0.00000E+000	9	...........	1467.70
	224	4.5	2.75994E-001	-3.82489E-007	0.00000E+000	2.76004E-001	0.00000E+000	9	...........	1467.70
	225	4.52	2.74988E-001	-4.29393E-007	0.00000E+000	2.75004E-001	0.00000E+000	9	...........	1467.70
	226	4.54	2.73989E-001	-4.80304E-007	0.00000E+000	2.74005E-001	0.00000E+000	9	...........	1467.70
	227	4.56	2.73002E-001	-5.22785E-007	0.00000E+000	2.73005E-001	0.00000E+000	9	...........	1467.70
	228	4.58	2.72002E-001	-5.72693E-007	0.00000E+000	2.72006E-001	0.00000E+000	9	...........	1467.70
	229	4.6	2.71002E-001	-6.14117E-007	0.00000E+000	2.71006E-001	0.00000E+000	9	...........	1467.70
	230	4.62	2.69993E-001	-6.69590E-007	0.00000E+000	2.69994E-001	0.00000E+000	9	...........	1467.70
	231	4.64	2.68999E-001	-7.07203E-007	0.00000E+000	2.68994E-001	0.00000E+000	9	...........	1467.70
	232	4.66	2.67963E-001	-7.48571E-007	0.00000E+000	2.67994E-001	0.00000E+000	9	...........	1467.70
	233	4.68	2.66966E-001	-7.98201E-007	0.00000E+000	2.66995E-001	0.00000E+000	9	...........	1467.70
	234	4.7	2.65977E-001	-8.42407E-007	0.00000E+000	2.65995E-001	0.00000E+000	9	...........	1467.70
	235	4.72	2.64979E-001	-8.86112E-007	0.00000E+000	2.64995E-001	0.00000E+000	9	...........	1467.70
	236	4.74	2.63982E-001	-9.25254E-007	0.00000E+000	2.63996E-001	0.00000E+000	9	...........	1467.70
	237	4.76	2.62982E-001	-9.65927E-007	0.00000E+000	2.62996E-001	0.00000E+000	9	...........	1467.60
	238	4.78	2.61969E-001	-1.00710E-006	0.00000E+000	2.61997E-001	0.00000E+000	9	...........	1467.52
	239	4.8	2.60975E-001	-1.04825E-006	0.00000E+000	2.60997E-001	0.00000E+000	9	...........	1467.52
	240	4.82	2.59978E-001	-1.08861E-006	0.00000E+000	2.59997E-001	0.00000E+000	9	...........	1467.52
	241	4.84	2.58984E-001	-1.13173E-006	0.00000E+000	2.58998E-001	0.00000E+000	9	...........	1467.52
	242	4.86	2.57985E-001	-1.17046E-006	0.00000E+000	2.57998E-001	0.00000E+000	9	...........	1467.52
	243	4.88	2.56991E-001	-1.21667E-006	0.00000E+000	2.56998E-001	0.00000E+000	9	...........	1467.52
	244	4.9	2.55987E-001	-1.25322E-006	0.00000E+000	2.55999E-001	0.00000E+000	9	...........	1467.52
	245	4.92	2.54965E-001	-1.29924E-006	0.00000E+000	2.54999E-001	0.00000E+000	9	...........	1467.52
	246	4.94	2.53964E-001	-1.33944E-006	0.00000E+000	2.53999E-001	0.00000E+000	9	...........	1467.52
	247	4.96	2.52968E-001	-1.38225E-006	0.00000E+000	2.53000E-001	0.00000E+000	9	...........	1467.52
	248	4.98	2.51977E-001	-1.42159E-006	0.00000E+000	2.52000E-001	0.00000E+000	9	...........	1467.52
	249	5	2.50980E-001	-1.45553E-006	0.00000E+000	2.51000E-001	0.00000E+000	9	...........	1467.52
	250	5.02	2.49988E-001	-1.49968E-006	0.00000E+000	2.50001E-001	0.00000E+000	9	...........	1467.52
	251	5.04	2.48981E-001	-1.53793E-006	0.00000E+000	2.49001E-001	0.00000E+000	9	...........	1467.52
	252	5.06	2.47989E-001	-1.57974E-006	0.00000E+000	2.48001E-001	0.00000E+000	9	...........	1467.52
	253	5.08	2.46992E-001	-1.62367E-006	0.00000E+000	2.47002E-001	0.00000E+000	9	...........	1467.52
	254	5.1	2.45999E-001	-1.65978E-006	0.00000E+000	2.46002E-001	0.00000E+000	9	...........	1467.52
	255	5.12	2.45008E-001	-1.69495E-006	0.00000E+000	2.45002E-001	0.00000E+000	9	...........	1467.52
	256	5.14	2.44015E-001	-1.73662E-006	0.00000E+000	2.44003E-001	0.00000E+000	9	...........	1467.52
	257	5.16	2.43008E-001	-1.77635E-006	0.00000E+000	2.43003E-001	0.00000E+000	9	...........	1467.52
	258	5.18	2.41990E-001	-1.82069E-006	0.00000E+000	2.42004E-001	0.00000E+000	9	...........	1467.52
	259	5.2	2.40991E-001	-1.86342E-006	0.00000E+000	2.41004E-001	0.00000E+000	9	...........	1467.52
	260	5.22	2.39998E-001	-1.90713E-006	0.00000E+000	2.40004E-001	0.00000E+000	9	...........	1467.52
	261	5.24	2.38992E-001	-1.94683E-006	0.00000E+000	2.39005E-001	0.00000E+000	9	...........	1467.52
	262	5.26	2.37992E-001	-1.98583E-006	0.00000E+000	2.38005E-001	0.00000E+000	9	...........	1467.52
	263	5.28	2.36999E-001	-2.03148E-006	0.00000E+000	2.37005E-001	0.00000E+000	9	...........	1467.52
	264	5.3	2.35991E-001	-2.07238E-006	0.00000E+000	2.36006E-001	0.00000E+000	9	...........	1467.52
	265	5.32	2.34997E-001	-2.11875E-006	0.00000E+000	2.35006E-001	0.00000E+000	9	...........	1467.52
	266	5.34	2.34000E-001	-2.16886E-006	0.00000E+000	2.33994E-001	0.00000E+000	9	...........	1467.52
	267	5.36	2.32993E-001	-2.20764E-006	0.00000E+000	2.32994E-001	0.00000E+000	9	...........	1467.52
	268	5.38	2.31996E-001	-2.24814E-006	0.00000E+000	2.31994E-001	0.00000E+000	9	...........	1467.52
	269	5.4	2.30994E-001	-2.29616E-006	0.00000E+000	2.30995E-001	0.00000E+000	9	...........	1467.52
	270	5.42	2.29977E-001	-2.33717E-006	0.00000E+000	2.29995E-001	0.00000E+000	9	...........	1467.52
	271	5.44	2.28981E-001	-2.38268E-006	0.00000E+000	2.28996E-001	0.00000E+000	9	...........	1467.52
	272	5.46	2.27982E-001	-2.42230E-006	0.00000E+000	2.27996E-001	0.00000E+000	9	...........	1467.52
	273	5.48	2.26975E-001	-2.47006E-006	0.00000E+000	2.26996E-001	0.00000E+000	9	...........	1467.52
	274	5.5	2.25977E-001	-2.51388E-006	0.00000E+000	2.25997E-001	0.00000E+000	9	...........	1467.52
	275	5.52	2.24979E-001	-2.56409E-006	0.00000E+000	2.24997E-001	0.00000E+000	9	...........	1467.52
	276	5.54	2.23996E-001	-2.60354E-006	0.00000E+000	2.23997E-001	0.00000E+000	9	...........	1467.52
	277	5.56	2.22993E-001	-2.65490E-006	0.00000E+000	2.22998E-001	0.00000E+000	9	...........	1467.52
	278	5.58	2.22003E-001	-2.69844E-006	0.00000E+000	2.21998E-001	0.00000E+000	9	...........	1467.52
	279	5.6	2.20996E-001	-2.74620E-006	0.00000E+000	2.20998E-001	0.00000E+000	9	...........	1467.52
	280	5.62	2.19989E-001	-2.79464E-006	0.00000E+000	2.19999E-001	0.00000E+000	9	...........	1467.52
	281	5.64	2.18989E-001	-2.83692E-006	0.00000E+000	2.18999E-001	0.00000E+000	9	...........	1467.52
	282	5.66	2.18010E-001	-2.89070E-006	0.00000E+000	2.17999E-001	0.00000E+000	9	...........	1467.52
	283	5.68	2.16980E-001	-2.93983E-006	0.00000E+000	2.17000E-001	0.00000E+000	9	...........	1467.52
	284	5.7	2.15988E-001	-2.99280E-006	0.00000E+000	2.16000E-001	0.00000E+000	9	...........	1467.52
	285	5.72	2.14989E-001	-3.03698E-006	0.00000E+000	2.15000E-001	0.00000E+000	9	...........	1467.52
	286	5.74	2.13982E-001	-3.08803E-006	0.00000E+000	2.14001E-001	0.00000E+000	9	...........	1467.52
	287	5.76	2.12983E-001	-3.13690E-006	0.00000E+000	2.13001E-001	0.00000E+000	9	...........	1467.68
	288	5.78	2.11996E-001	-3.18531E-006	0.00000E+000	2.12001E-001	0.00000E+000	9	...........	1467.79
	289	5.8	2.10991E-001	-3.23389E-006	0.00000E+000	2.11002E-001	0.00000E+000	9	...........	1467.79
	290	5.82	2.09990E-001	-3.28655E-006	0.00000E+000	2.10002E-001	0.00000E+000	9	...........	1467.79
	291	5.84	2.08992E-001	-3.34071E-006	0.00000E+000	2.09003E-001	0.00000E+000	9	...........	1467.79
	292	5.86	2.07996E-001	-3.38642E-006	0.00000E+000	2.08003E-001	0.00000E+000	9	...........	1467.79
	293	5.88	2.06993E-001	-3.44223E-006	0.00000E+000	2.07003E-001	0.00000E+000	9	...........	1467.79
	294	5.9	2.06002E-001	-3.49125E-006	0.00000E+000	2.06004E-001	0.00000E+000	9	...........	1467.79
	295	5.92	2.05003E-001	-3.54747E-006	0.00000E+000	2.05004E-001	0.00000E+000	9	...........	1467.79
	296	5.94	2.03991E-001	-3.60219E-006	0.00000E+000	2.04004E-001	0.00000E+000	9	...........	1467.79
	297	5.96	2.02990E-001	-3.65555E-006	0.00000E+000	2.03005E-001	0.00000E+000	9	...........	1467.79
	298	5.98	2.01992E-001	-3.70966E-006	0.00000E+000	2.02005E-001	0.00000E+000	9	...........	1467.79
	299	6	2.00991E-001	-3.76505E-006	0.00000E+000	2.01005E-001	0.00000E+000	9	...........	1467.79
	300	6.02	2.00006E-001	-3.82019E-006	0.00000E+000	2.00006E-001	0.00000E+000	9	...........	1467.79
	301	6.04	1.99013E-001	-3.87424E-006	0.00000E+000	1.99006E-001	0.00000E+000	9	...........	1467.79
	302	6.06	1.97988E-001	-3.93817E-006	0.00000E+000	1.97994E-001	0.00000E+000	9	...........	1467.79
	303	6.08	1.96997E-001	-3.98961E-006	0.00000E+000	1.96994E-001	0.00000E+000	9	...........	1467.79
	304	6.1	1.96000E-001	-4.04614E-006	0.00000E+000	1.95995E-001	0.00000E+000	9	...........	1467.79
	305	6.12	1.94994E-001	-4.10467E-006	0.00000E+000	1.94995E-001	0.00000E+000	9	...........	1467.79
	306	6.14	1.94009E-001	-4.15723E-006	0.00000E+000	1.93995E-001	0.00000E+000	9	...........	1467.79
	307	6.16	1.93019E-001	-4.21729E-006	0.00000E+000	1.92996E-001	0.00000E+000	9	...........	1467.79
	308	6.18	1.92025E-001	-4.27574E-006	0.00000E+000	1.91996E-001	0.00000E+000	9	...........	1467.79
	309	6.2	1.90987E-001	-4.33199E-006	0.00000E+000	1.90996E-001	0.00000E+000	9	...........	1467.79
	310	6.22	1.89990E-001	-4.39670E-006	0.00000E+000	1.89997E-001	0.00000E+000	9	...........	1467.79
	311	6.24	1.89001E-001	-4.45721E-006	0.00000E+000	1.88997E-001	0.00000E+000	9	...........	1467.79
	312	6.26	1.88005E-001	-4.52122E-006	0.00000E+000	1.87997E-001	0.00000E+000	9	...........	1467.79
	313	6.28	1.87007E-001	-4.57808E-006	0.00000E+000	1.86998E-001	0.00000E+000	9	...........	1467.79
	314	6.3	1.86010E-001	-4.64093E-006	0.00000E+000	1.85998E-001	0.00000E+000	9	...........	1467.79
	315	6.32	1.84998E-001	-4.69941E-006	0.00000E+000	1.84998E-001	0.00000E+000	9	...........	1467.79
	316	6.34	1.83997E-001	-4.75702E-006	0.00000E+000	1.83999E-001	0.00000E+000	9	...........	1467.79
	317	6.36	1.83002E-001	-4.81939E-006	0.00000E+000	1.82999E-001	0.00000E+000	9	...........	1467.79
	318	6.38	1.82007E-001	-4.87935E-006	0.00000E+000	1.81999E-001	0.00000E+000	9	...........	1467.79
	319	6.4	1.81010E-001	-4.94397E-006	0.00000E+000	1.81000E-001	0.00000E+000	9	...........	1467.79
	320	6.42	1.80002E-001	-5.00178E-006	0.00000E+000	1.80000E-001	0.00000E+000	9	...........	1467.79
	321	6.44	1.78992E-001	-5.05976E-006	0.00000E+000	1.79000E-001	0.00000E+000	9	...........	1467.79
	322	6.46	1.77991E-001	-5.12692E-006	0.00000E+000	1.78001E-001	0.00000E+000	9	...........	1467.79
	323	6.48	1.76993E-001	-5.18773E-006	0.00000E+000	1.77001E-001	0.00000E+000	9	...........	1467.79
	324	6.5	1.76012E-001	-5.25352E-006	0.00000E+000	1.76002E-001	0.00000E+000	9	...........	1467.79
	325	6.52	1.75008E-001	-5.32057E-006	0.00000E+000	1.75002E-001	0.00000E+000	9	...........	1467.79
	326	6.54	1.74009E-001	-5.38458E-006	0.00000E+000	1.74002E-001	0.00000E+000	9	...........	1467.79
	327	6.56	1.73020E-001	-5.44545E-006	0.00000E+000	1.73003E-001	0.00000E+000	9	...........	1467.79
	328	6.58	1.72005E-001	-5.51072E-006	0.00000E+000	1.72003E-001	0.00000E+000	9	...........	1467.79
	329	6.6	1.70999E-001	-5.58043E-006	0.00000E+000	1.71003E-001	0.00000E+000	9	...........	1467.79
	330	6.62	1.70009E-001	-5.64492E-006	0.00000E+000	1.70004E-001	0.00000E+000	9	...........	1467.79
	331	6.64	1.69004E-001	-5.71241E-006	0.00000E+000	1.69004E-001	0.00000E+000	9	...........	1467.79
	332	6.66	1.68012E-001	-5.77392E-006	0.00000E+000	1.68004E-001	0.00000E+000	9	...........	1467.79
	333	6.68	1.67013E-001	-5.84233E-006	0.00000E+000	1.67005E-001	0.00000E+000	9	...........	1467.79
	334	6.7	1.65982E-001	-5.90910E-006	0.00000E+000	1.66005E-001	0.00000E+000	9	...........	1467.79
	335	6.72	1.64981E-001	-5.97353E-006	0.00000E+000	1.65005E-001	0.00000E+000	9	...........	1467.79
	336	6.74	1.63997E-001	-6.03457E-006	0.00000E+000	1.64006E-001	0.00000E+000	9	...........	1467.79
	337	6.76	1.62993E-001	-6.10426E-006	0.00000E+000	1.63006E-001	0.00000E+000	9	...........	1467.62
	338	6.78	1.61983E-001	-6.17992E-006	0.00000E+000	1.61994E-001	0.00000E+000	9	...........	1467.52
	339	6.8	1.60990E-001	-6.23659E-006	0.00000E+000	1.60994E-001	0.00000E+000	9	...........	1467.52
	340	6.82	1.59994E-001	-6.30264E-006	0.00000E+000	1.59995E-001	0.00000E+000	9	...........	1467.52
	341	6.84	1.58984E-001	-6.36857E-006	0.00000E+000	1.58995E-001	0.00000E+000	9	...........	1467.52
	342	6.86	1.57998E-001	-6.43239E-006	0.00000E+000	1.57995E-001	0.00000E+000	9	...........	1467.52
	343	6.88	1.57011E-001	-6.50255E-006	0.00000E+000	1.56996E-001	0.00000E+000	9	...........	1467.52
	344	6.9	1.56004E-001	-6.57441E-006	0.00000E+000	1.55996E-001	0.00000E+000	9	...........	1467.52
	345	6.92	1.55005E-001	-6.63884E-006	0.00000E+000	1.54996E-001	0.00000E+000	9	...........	1467.52
	346	6.94	1.53994E-001	-6.70803E-006	0.00000E+000	1.53997E-001	0.00000E+000	9	...........	1467.52
	347	6.96	1.52985E-001	-6.77969E-006	0.00000E+000	1.52997E-001	0.00000E+000	9	...........	1467.52
	348	6.98	1.51994E-001	-6.84270E-006	0.00000E+000	1.51997E-001	0.00000E+000	9	...........	1467.52
	349	7	1.50991E-001	-6.91913E-006	0.00000E+000	1.50998E-001	0.00000E+000	9	...........	1467.52
	350	7.02	1.49991E-001	-6.98509E-006	0.00000E+000	1.49998E-001	0.00000E+000	9	...........	1467.52
	351	7.04	1.48997E-001	-7.05277E-006	0.00000E+000	1.48998E-001	0.00000E+000	9	...........	1467.52
	352	7.06	1.48002E-001	-7.11754E-006	0.00000E+000	1.47999E-001	0.00000E+000	9	...........	1467.52
	353	7.08	1.47000E-001	-7.18848E-006	0.00000E+000	1.46999E-001	0.00000E+000	9	...........	1467.52
	354	7.1	1.45997E-001	-7.25511E-006	0.00000E+000	1.46000E-001	0.00000E+000	9	...........	1467.52
	355	7.12	1.45006E-001	-7.32399E-006	0.00000E+000	1.45000E-001	0.00000E+000	9	...........	1467.52
	356	7.14	1.44012E-001	-7.39370E-006	0.00000E+000	1.44000E-001	0.00000E+000	9	...........	1467.52
	357	7.16	1.43014E-001	-7.46370E-006	0.00000E+000	1.43001E-001	0.00000E+000	9	...........	1467.52
	358	7.18	1.42013E-001	-7.53820E-006	0.00000E+000	1.42001E-001	0.00000E+000	9	...........	1467.52
	359	7.2	1.41017E-001	-7.61334E-006	0.00000E+000	1.41001E-001	0.00000E+000	9	...........	1467.52
	360	7.22	1.39991E-001	-7.68865E-006	0.00000E+000	1.40002E-001	0.00000E+000	9	...........	1467.52
	361	7.24	1.39001E-001	-7.76073E-006	0.00000E+000	1.39002E-001	0.00000E+000	9	...........	1467.52
	362	7.26	1.37999E-001	-7.83323E-006	0.00000E+000	1.38002E-001	0.00000E+000	9	...........	1467.52
	363	7.28	1.36996E-001	-7.90776E-006	0.00000E+000	1.37003E-001	0.00000E+000	9	...........	1467.52
	364	7.3	1.35999E-001	-7.97628E-006	0.00000E+000	1.36003E-001	0.00000E+000	9	...........	1467.52
	365	7.32	1.35003E-001	-8.04797E-006	0.00000E+000	1.35003E-001	0.00000E+000	9	...........	1467.52
	366	7.34	1.33999E-001	-8.12217E-006	0.00000E+000	1.34004E-001	0.00000E+000	9	...........	1467.52
	367	7.36	1.33006E-001	-8.20120E-006	0.00000E+000	1.33004E-001	0.00000E+000	9	...........	1467.52
	368	7.38	1.32014E-001	-8.27832E-006	0.00000E+000	1.32004E-001	0.00000E+000	9	...........	1467.52
	369	7.4	1.31022E-001	-8.35341E-006	0.00000E+000	1.31005E-001	0.00000E+000	9	...........	1467.52
	370	7.42	1.30014E-001	-8.43428E-006	0.00000E+000	1.30005E-001	0.00000E+000	9	...........	1467.52
	371	7.44	1.29005E-001	-8.51129E-006	0.00000E+000	1.29005E-001	0.00000E+000	9	...........	1467.52
	372	7.46	1.28017E-001	-8.58634E-006	0.00000E+000	1.28006E-001	0.00000E+000	9	...........	1467.52
	373	7.48	1.27006E-001	-8.66179E-006	0.00000E+000	1.27006E-001	0.00000E+000	9	...........	1467.52
	374	7.5	1.25983E-001	-8.75735E-006	0.00000E+000	1.25994E-001	0.00000E+000	9	...........	1467.52
	375	7.52	1.24995E-001	-8.83174E-006	0.00000E+000	1.24994E-001	0.00000E+000	9	...........	1467.52
	376	7.54	1.23986E-001	-8.90969E-006	0.00000E+000	1.23995E-001	0.00000E+000	9	...........	1467.52
	377	7.56	1.22991E-001	-8.99908E-006	0.00000E+000	1.22995E-001	0.00000E+000	9	...........	1467.52
	378	7.58	1.22004E-001	-9.07647E-006	0.00000E+000	1.21995E-001	0.00000E+000	9	...........	1467.52
	379	7.6	1.21001E-001	-9.15946E-006	0.00000E+000	1.20996E-001	0.00000E+000	9	...........	1467.52
	380	7.62	1.20007E-001	-9.24108E-006	0.00000E+000	1.19996E-001	0.00000E+000	9	...........	1467.52
	381	7.64	1.19009E-001	-9.33052E-006	0.00000E+000	1.18996E-001	0.00000E+000	9	...........	1467.52
	382	7.66	1.18002E-001	-9.41340E-006	0.00000E+000	1.17997E-001	0.00000E+000	9	...........	1467.52
	383	7.68	1.17003E-001	-9.49614E-006	0.00000E+000	1.16997E-001	0.00000E+000	9	...........	1467.52
	384	7.7	1.16012E-001	-9.58399E-006	0.00000E+000	1.15997E-001	0.00000E+000	9	...........	1467.52
	385	7.72	1.15007E-001	-9.66261E-006	0.00000E+000	1.14998E-001	0.00000E+000	9	...........	1467.52
	386	7.74	1.13988E-001	-9.75914E-006	0.00000E+000	1.13998E-001	0.00000E+000	9	...........	1467.52
[...]
	1003	20.08	2.96988E-001	9.67998E-007	0.00000E+000	2.96997E-001	0.00000E+000	9	...........	1467.61
	1004	20.1	2.96001E-001	8.54716E-007	0.00000E+000	2.95997E-001	0.00000E+000	9	...........	1467.61
	1005	20.12	2.95002E-001	7.55816E-007	0.00000E+000	2.94998E-001	0.00000E+000	9	...........	1467.61
	1006	20.14	2.93972E-001	6.70242E-007	0.00000E+000	2.93998E-001	0.00000E+000	9	...........	1467.61
	1007	20.16	2.92976E-001	5.85642E-007	0.00000E+000	2.92998E-001	0.00000E+000	9	...........	1467.61
	1008	20.18	2.91981E-001	5.07691E-007	0.00000E+000	2.91999E-001	0.00000E+000	9	...........	1467.61
	1009	20.2	2.90974E-001	4.40812E-007	0.00000E+000	2.90999E-001	0.00000E+000	9	...........	1467.61
	1010	20.22	2.89990E-001	3.69676E-007	0.00000E+000	2.89999E-001	0.00000E+000	9	...........	1467.61
	1011	20.24	2.88998E-001	3.07221E-007	0.00000E+000	2.89000E-001	0.00000E+000	9	...........	1467.61
	1012	20.26	2.88001E-001	2.46574E-007	0.00000E+000	2.88000E-001	0.00000E+000	9	...........	1467.61
	1013	20.28	2.86995E-001	1.83895E-007	0.00000E+000	2.87000E-001	0.00000E+000	9	...........	1467.61
	1014	20.3	2.86001E-001	1.21662E-007	0.00000E+000	2.86001E-001	0.00000E+000	9	...........	1467.61
	1015	20.32	2.85000E-001	6.41031E-008	0.00000E+000	2.85001E-001	0.00000E+000	9	...........	1467.61
	1016	20.34	2.84006E-001	1.32762E-008	0.00000E+000	2.84001E-001	0.00000E+000	9	...........	1467.61
	1017	20.36	2.82999E-001	-4.01101E-008	0.00000E+000	2.83002E-001	0.00000E+000	9	...........	1467.61
	1018	20.38	2.81990E-001	-9.34408E-008	0.00000E+000	2.82002E-001	0.00000E+000	9	...........	1467.61
	1019	20.4	2.80979E-001	-1.44629E-007	0.00000E+000	2.81002E-001	0.00000E+000	9	...........	1467.61
	1020	20.42	2.79986E-001	-1.95095E-007	0.00000E+000	2.80003E-001	0.00000E+000	9	...........	1467.61
	1021	20.44	2.78984E-001	-2.48815E-007	0.00000E+000	2.79003E-001	0.00000E+000	9	...........	1467.61
	1022	20.46	2.77989E-001	-2.97694E-007	0.00000E+000	2.78003E-001	0.00000E+000	9	...........	1467.61
	1023	20.48	2.76995E-001	-3.46546E-007	0.00000E+000	2.77004E-001	0.00000E+000	9	...........	1467.61
	1024	20.5	2.75995E-001	-3.87107E-007	0.00000E+000	2.76004E-001	0.00000E+000	9	...........	1467.61
	1025	20.52	2.74985E-001	-4.29978E-007	0.00000E+000	2.75004E-001	0.00000E+000	9	...........	1467.61
	1026	20.54	2.73989E-001	-4.80415E-007	0.00000E+000	2.74005E-001	0.00000E+000	9	...........	1467.61
	1027	20.56	2.72993E-001	-5.24343E-007	0.00000E+000	2.73005E-001	0.00000E+000	9	...........	1467.61
	1028	20.58	2.71989E-001	-5.74140E-007	0.00000E+000	2.72006E-001	0.00000E+000	9	...........	1467.61
	1029	20.6	2.70999E-001	-6.19765E-007	0.00000E+000	2.71006E-001	0.00000E+000	9	...........	1467.61
	1030	20.62	2.69990E-001	-6.73791E-007	0.00000E+000	2.69994E-001	0.00000E+000	9	...........	1467.61
	1031	20.64	2.68996E-001	-7.12043E-007	0.00000E+000	2.68994E-001	0.00000E+000	9	...........	1467.61
	1032	20.66	2.67957E-001	-7.56944E-007	0.00000E+000	2.67994E-001	0.00000E+000	9	...........	1467.61
	1033	20.68	2.66965E-001	-8.00260E-007	0.00000E+000	2.66995E-001	0.00000E+000	9	...........	1467.61
	1034	20.7	2.65984E-001	-8.44160E-007	0.00000E+000	2.65995E-001	0.00000E+000	9	...........	1467.61
	1035	20.72	2.64980E-001	-8.86001E-007	0.00000E+000	2.64995E-001	0.00000E+000	9	...........	1467.61
	1036	20.74	2.63983E-001	-9.22890E-007	0.00000E+000	2.63996E-001	0.00000E+000	9	...........	1467.59
	1037	20.76	2.62984E-001	-9.63841E-007	0.00000E+000	2.62996E-001	0.00000E+000	9	...........	1467.52
	1038	20.78	2.61979E-001	-1.00668E-006	0.00000E+000	2.61997E-001	0.00000E+000	9	...........	1467.52
	1039	20.8	2.60978E-001	-1.05036E-006	0.00000E+000	2.60997E-001	0.00000E+000	9	...........	1467.52
	1040	20.82	2.59978E-001	-1.08586E-006	0.00000E+000	2.59997E-001	0.00000E+000	9	...........	1467.52
	1041	20.84	2.58985E-001	-1.12575E-006	0.00000E+000	2.58998E-001	0.00000E+000	9	...........	1467.52
	1042	20.86	2.57993E-001	-1.16534E-006	0.00000E+000	2.57998E-001	0.00000E+000	9	...........	1467.52
	1043	20.88	2.56998E-001	-1.20373E-006	0.00000E+000	2.56998E-001	0.00000E+000	9	...........	1467.52
	1044	20.9	2.55998E-001	-1.24251E-006	0.00000E+000	2.55999E-001	0.00000E+000	9	...........	1467.52
	1045	20.92	2.54979E-001	-1.28338E-006	0.00000E+000	2.54999E-001	0.00000E+000	9	...........	1467.52
	1046	20.94	2.53980E-001	-1.32711E-006	0.00000E+000	2.53999E-001	0.00000E+000	9	...........	1467.52
	1047	20.96	2.52984E-001	-1.36589E-006	0.00000E+000	2.53000E-001	0.00000E+000	9	...........	1467.52
	1048	20.98	2.51987E-001	-1.40676E-006	0.00000E+000	2.52000E-001	0.00000E+000	9	...........	1467.52
	1049	21	2.50994E-001	-1.44443E-006	0.00000E+000	2.51000E-001	0.00000E+000	9	...........	1467.52
	1050	21.02	2.49995E-001	-1.48802E-006	0.00000E+000	2.50001E-001	0.00000E+000	9	...........	1467.52
	1051	21.04	2.48985E-001	-1.52410E-006	0.00000E+000	2.49001E-001	0.00000E+000	9	...........	1467.52
	1052	21.06	2.47989E-001	-1.56978E-006	0.00000E+000	2.48001E-001	0.00000E+000	9	...........	1467.52
	1053	21.08	2.46986E-001	-1.60968E-006	0.00000E+000	2.47002E-001	0.00000E+000	9	...........	1467.52
	1054	21.1	2.45988E-001	-1.65322E-006	0.00000E+000	2.46002E-001	0.00000E+000	9	...........	1467.52
	1055	21.12	2.44991E-001	-1.69303E-006	0.00000E+000	2.45002E-001	0.00000E+000	9	...........	1467.52
	1056	21.14	2.43997E-001	-1.73081E-006	0.00000E+000	2.44003E-001	0.00000E+000	9	...........	1467.52
	1057	21.16	2.42977E-001	-1.77846E-006	0.00000E+000	2.43003E-001	0.00000E+000	9	...........	1467.52
	1058	21.18	2.41978E-001	-1.81390E-006	0.00000E+000	2.42004E-001	0.00000E+000	9	...........	1467.52
	1059	21.2	2.40988E-001	-1.85814E-006	0.00000E+000	2.41004E-001	0.00000E+000	9	...........	1467.52
	1060	21.22	2.39998E-001	-1.89586E-006	0.00000E+000	2.40004E-001	0.00000E+000	9	...........	1467.52
	1061	21.24	2.38995E-001	-1.93929E-006	0.00000E+000	2.39005E-001	0.00000E+000	9	...........	1467.52
	1062	21.26	2.37994E-001	-1.97860E-006	0.00000E+000	2.38005E-001	0.00000E+000	9	...........	1467.52
	1063	21.28	2.36999E-001	-2.02255E-006	0.00000E+000	2.37005E-001	0.00000E+000	9	...........	1467.52
	1064	21.3	2.35994E-001	-2.05719E-006	0.00000E+000	2.36006E-001	0.00000E+000	9	...........	1467.52
	1065	21.32	2.34998E-001	-2.10593E-006	0.00000E+000	2.35006E-001	0.00000E+000	9	...........	1467.52
	1066	21.34	2.33997E-001	-2.14933E-006	0.00000E+000	2.33994E-001	0.00000E+000	9	...........	1467.52
	1067	21.36	2.32992E-001	-2.18967E-006	0.00000E+000	2.32994E-001	0.00000E+000	9	...........	1467.52
	1068	21.38	2.32000E-001	-2.22550E-006	0.00000E+000	2.31994E-001	0.00000E+000	9	...........	1467.52
	1069	21.4	2.31000E-001	-2.26937E-006	0.00000E+000	2.30995E-001	0.00000E+000	9	...........	1467.52
	1070	21.42	2.29985E-001	-2.31430E-006	0.00000E+000	2.29995E-001	0.00000E+000	9	...........	1467.52
	1071	21.44	2.28985E-001	-2.35723E-006	0.00000E+000	2.28996E-001	0.00000E+000	9	...........	1467.52
	1072	21.46	2.27995E-001	-2.40572E-006	0.00000E+000	2.27996E-001	0.00000E+000	9	...........	1467.52
	1073	21.48	2.26987E-001	-2.45301E-006	0.00000E+000	2.26996E-001	0.00000E+000	9	...........	1467.52
	1074	21.5	2.25984E-001	-2.49454E-006	0.00000E+000	2.25997E-001	0.00000E+000	9	...........	1467.52
	1075	21.52	2.24991E-001	-2.54195E-006	0.00000E+000	2.24997E-001	0.00000E+000	9	...........	1467.52
	1076	21.54	2.24005E-001	-2.58713E-006	0.00000E+000	2.23997E-001	0.00000E+000	9	...........	1467.52
	1077	21.56	2.22998E-001	-2.63189E-006	0.00000E+000	2.22998E-001	0.00000E+000	9	...........	1467.52
	1078	21.58	2.21995E-001	-2.68099E-006	0.00000E+000	2.21998E-001	0.00000E+000	9	...........	1467.52
	1079	21.6	2.20999E-001	-2.72495E-006	0.00000E+000	2.20998E-001	0.00000E+000	9	...........	1467.52
	1080	21.62	2.19992E-001	-2.77703E-006	0.00000E+000	2.19999E-001	0.00000E+000	9	...........	1467.52
	1081	21.64	2.18992E-001	-2.82432E-006	0.00000E+000	2.18999E-001	0.00000E+000	9	...........	1467.52
	1082	21.66	2.18007E-001	-2.86995E-006	0.00000E+000	2.17999E-001	0.00000E+000	9	...........	1467.52
	1083	21.68	2.16974E-001	-2.91963E-006	0.00000E+000	2.17000E-001	0.00000E+000	9	...........	1467.52
	1084	21.7	2.15976E-001	-2.96695E-006	0.00000E+000	2.16000E-001	0.00000E+000	9	...........	1467.52
	1085	21.72	2.14973E-001	-3.01105E-006	0.00000E+000	2.15000E-001	0.00000E+000	9	...........	1467.52
	1086	21.74	2.13965E-001	-3.06360E-006	0.00000E+000	2.14001E-001	0.00000E+000	9	...........	1467.50
	1087	21.76	2.12981E-001	-3.11362E-006	0.00000E+000	2.13001E-001	0.00000E+000	9	...........	1467.43
	1088	21.78	2.11993E-001	-3.15975E-006	0.00000E+000	2.12001E-001	0.00000E+000	9	...........	1467.43
	1089	21.8	2.10987E-001	-3.21533E-006	0.00000E+000	2.11002E-001	0.00000E+000	9	...........	1467.43
	1090	21.82	2.09991E-001	-3.26908E-006	0.00000E+000	2.10002E-001	0.00000E+000	9	...........	1467.43
	1091	21.84	2.08992E-001	-3.32207E-006	0.00000E+000	2.09003E-001	0.00000E+000	9	...........	1467.43
	1092	21.86	2.07992E-001	-3.37368E-006	0.00000E+000	2.08003E-001	0.00000E+000	9	...........	1467.43
	1093	21.88	2.06985E-001	-3.42551E-006	0.00000E+000	2.07003E-001	0.00000E+000	9	...........	1467.43
	1094	21.9	2.06000E-001	-3.47163E-006	0.00000E+000	2.06004E-001	0.00000E+000	9	...........	1467.43
	1095	21.92	2.05007E-001	-3.52471E-006	0.00000E+000	2.05004E-001	0.00000E+000	9	...........	1467.43
	1096	21.94	2.03999E-001	-3.57952E-006	0.00000E+000	2.04004E-001	0.00000E+000	9	...........	1467.43
	1097	21.96	2.02997E-001	-3.62971E-006	0.00000E+000	2.03005E-001	0.00000E+000	9	...........	1467.43
	1098	21.98	2.01999E-001	-3.68788E-006	0.00000E+000	2.02005E-001	0.00000E+000	9	...........	1467.43
	1099	22	2.01005E-001	-3.73219E-006	0.00000E+000	2.01005E-001	0.00000E+000	9	...........	1467.43
	1100	22.02	2.00014E-001	-3.79195E-006	0.00000E+000	2.00006E-001	0.00000E+000	9	...........	1467.43
	1101	22.04	1.99019E-001	-3.84267E-006	0.00000E+000	1.99006E-001	0.00000E+000	9	...........	1467.43
	1102	22.06	1.97995E-001	-3.90793E-006	0.00000E+000	1.97994E-001	0.00000E+000	9	...........	1467.43
	1103	22.08	1.97005E-001	-3.95681E-006	0.00000E+000	1.96994E-001	0.00000E+000	9	...........	1467.43
	1104	22.1	1.96004E-001	-4.01056E-006	0.00000E+000	1.95995E-001	0.00000E+000	9	...........	1467.43
	1105	22.12	1.95011E-001	-4.06856E-006	0.00000E+000	1.94995E-001	0.00000E+000	9	...........	1467.43
	1106	22.14	1.94016E-001	-4.12451E-006	0.00000E+000	1.93995E-001	0.00000E+000	9	...........	1467.43
	1107	22.16	1.93010E-001	-4.17937E-006	0.00000E+000	1.92996E-001	0.00000E+000	9	...........	1467.43
	1108	22.18	1.92009E-001	-4.23782E-006	0.00000E+000	1.91996E-001	0.00000E+000	9	...........	1467.43
	1109	22.2	1.90973E-001	-4.29697E-006	0.00000E+000	1.90996E-001	0.00000E+000	9	...........	1467.43
	1110	22.22	1.89979E-001	-4.35923E-006	0.00000E+000	1.89997E-001	0.00000E+000	9	...........	1467.43
	1111	22.24	1.88978E-001	-4.42088E-006	0.00000E+000	1.88997E-001	0.00000E+000	9	...........	1467.43
	1112	22.26	1.87984E-001	-4.47693E-006	0.00000E+000	1.87997E-001	0.00000E+000	9	...........	1467.43
	1113	22.28	1.86992E-001	-4.54072E-006	0.00000E+000	1.86998E-001	0.00000E+000	9	...........	1467.43
	1114	22.3	1.85996E-001	-4.59812E-006	0.00000E+000	1.85998E-001	0.00000E+000	9	...........	1467.43
	1115	22.32	1.84994E-001	-4.66438E-006	0.00000E+000	1.84998E-001	0.00000E+000	9	...........	1467.43
	1116	22.34	1.83999E-001	-4.71771E-006	0.00000E+000	1.83999E-001	0.00000E+000	9	...........	1467.43
	1117	22.36	1.83008E-001	-4.78139E-006	0.00000E+000	1.82999E-001	0.00000E+000	9	...........	1467.43
	1118	22.38	1.82017E-001	-4.84468E-006	0.00000E+000	1.81999E-001	0.00000E+000	9	...........	1467.43
	1119	22.4	1.81016E-001	-4.90138E-006	0.00000E+000	1.81000E-001	0.00000E+000	9	...........	1467.43
	1120	22.42	1.80009E-001	-4.96598E-006	0.00000E+000	1.80000E-001	0.00000E+000	9	...........	1467.43
	1121	22.44	1.78989E-001	-5.02523E-006	0.00000E+000	1.79000E-001	0.00000E+000	9	...........	1467.43
	1122	22.46	1.77996E-001	-5.09172E-006	0.00000E+000	1.78001E-001	0.00000E+000	9	...........	1467.43
	1123	22.48	1.76995E-001	-5.15571E-006	0.00000E+000	1.77001E-001	0.00000E+000	9	...........	1467.43
	1124	22.5	1.76011E-001	-5.21619E-006	0.00000E+000	1.76002E-001	0.00000E+000	9	...........	1467.43
	1125	22.52	1.75002E-001	-5.28068E-006	0.00000E+000	1.75002E-001	0.00000E+000	9	...........	1467.43
	1126	22.54	1.74007E-001	-5.34188E-006	0.00000E+000	1.74002E-001	0.00000E+000	9	...........	1467.43
	1127	22.56	1.73011E-001	-5.40970E-006	0.00000E+000	1.73003E-001	0.00000E+000	9	...........	1467.43
	1128	22.58	1.72006E-001	-5.46838E-006	0.00000E+000	1.72003E-001	0.00000E+000	9	...........	1467.43
	1129	22.6	1.71004E-001	-5.53155E-006	0.00000E+000	1.71003E-001	0.00000E+000	9	...........	1467.43
	1130	22.62	1.70015E-001	-5.59426E-006	0.00000E+000	1.70004E-001	0.00000E+000	9	...........	1467.43
	1131	22.64	1.69013E-001	-5.66064E-006	0.00000E+000	1.69004E-001	0.00000E+000	9	...........	1467.43
	1132	22.66	1.68016E-001	-5.72337E-006	0.00000E+000	1.68004E-001	0.00000E+000	9	...........	1467.43
	1133	22.68	1.67016E-001	-5.78680E-006	0.00000E+000	1.67005E-001	0.00000E+000	9	...........	1467.43
	1134	22.7	1.65983E-001	-5.85243E-006	0.00000E+000	1.66005E-001	0.00000E+000	9	...........	1467.43
	1135	22.72	1.64983E-001	-5.91978E-006	0.00000E+000	1.65005E-001	0.00000E+000	9	...........	1467.43
	1136	22.74	1.63997E-001	-5.98747E-006	0.00000E+000	1.64006E-001	0.00000E+000	9	...........	1467.51
	1137	22.76	1.62985E-001	-6.05115E-006	0.00000E+000	1.63006E-001	0.00000E+000	9	...........	1467.70
	1138	22.78	1.61974E-001	-6.12632E-006	0.00000E+000	1.61994E-001	0.00000E+000	9	...........	1467.70
	1139	22.8	1.60979E-001	-6.18591E-006	0.00000E+000	1.60994E-001	0.00000E+000	9	...........	1467.70
	1140	22.82	1.59982E-001	-6.24867E-006	0.00000E+000	1.59995E-001	0.00000E+000	9	...........	1467.70
	1141	22.84	1.58984E-001	-6.31783E-006	0.00000E+000	1.58995E-001	0.00000E+000	9	...........	1467.70
	1142	22.86	1.57999E-001	-6.38348E-006	0.00000E+000	1.57995E-001	0.00000E+000	9	...........	1467.70
	1143	22.88	1.57001E-001	-6.45409E-006	0.00000E+000	1.56996E-001	0.00000E+000	9	...........	1467.70
	1144	22.9	1.55998E-001	-6.52147E-006	0.00000E+000	1.55996E-001	0.00000E+000	9	...........	1467.70
	1145	22.92	1.55000E-001	-6.58904E-006	0.00000E+000	1.54996E-001	0.00000E+000	9	...........	1467.70
	1146	22.94	1.53990E-001	-6.65934E-006	0.00000E+000	1.53997E-001	0.00000E+000	9	...........	1467.70
	1147	22.96	1.52983E-001	-6.72806E-006	0.00000E+000	1.52997E-001	0.00000E+000	9	...........	1467.70
	1148	22.98	1.51990E-001	-6.79346E-006	0.00000E+000	1.51997E-001	0.00000E+000	9	...........	1467.70
	1149	23	1.50996E-001	-6.86746E-006	0.00000E+000	1.50998E-001	0.00000E+000	9	...........	1467.70
	1150	23.02	1.50000E-001	-6.93284E-006	0.00000E+000	1.49998E-001	0.00000E+000	9	...........	1467.70
	1151	23.04	1.48999E-001	-6.99847E-006	0.00000E+000	1.48998E-001	0.00000E+000	9	...........	1467.70
	1152	23.06	1.48007E-001	-7.06454E-006	0.00000E+000	1.47999E-001	0.00000E+000	9	...........	1467.70
	1153	23.08	1.47008E-001	-7.13192E-006	0.00000E+000	1.46999E-001	0.00000E+000	9	...........	1467.70
	1154	23.1	1.46000E-001	-7.20492E-006	0.00000E+000	1.46000E-001	0.00000E+000	9	...........	1467.70
	1155	23.12	1.45004E-001	-7.26993E-006	0.00000E+000	1.45000E-001	0.00000E+000	9	...........	1467.70
	1156	23.14	1.44000E-001	-7.33982E-006	0.00000E+000	1.44000E-001	0.00000E+000	9	...........	1467.70
	1157	23.16	1.43011E-001	-7.40992E-006	0.00000E+000	1.43001E-001	0.00000E+000	9	...........	1467.70
	1158	23.18	1.42012E-001	-7.47984E-006	0.00000E+000	1.42001E-001	0.00000E+000	9	...........	1467.70
	1159	23.2	1.41022E-001	-7.55103E-006	0.00000E+000	1.41001E-001	0.00000E+000	9	...........	1467.70
	1160	23.22	1.39999E-001	-7.62614E-006	0.00000E+000	1.40002E-001	0.00000E+000	9	...........	1467.70
	1161	23.24	1.39011E-001	-7.69711E-006	0.00000E+000	1.39002E-001	0.00000E+000	9	...........	1467.70
	1162	23.26	1.38014E-001	-7.76952E-006	0.00000E+000	1.38002E-001	0.00000E+000	9	...........	1467.70
	1163	23.28	1.37009E-001	-7.84990E-006	0.00000E+000	1.37003E-001	0.00000E+000	9	...........	1467.70
	1164	23.3	1.36005E-001	-7.91530E-006	0.00000E+000	1.36003E-001	0.00000E+000	9	...........	1467.70
	1165	23.32	1.34999E-001	-7.98866E-006	0.00000E+000	1.35003E-001	0.00000E+000	9	...........	1467.70
	1166	23.34	1.33997E-001	-8.06656E-006	0.00000E+000	1.34004E-001	0.00000E+000	9	...........	1467.70
	1167	23.36	1.33006E-001	-8.13814E-006	0.00000E+000	1.33004E-001	0.00000E+000	9	...........	1467.70
	1168	23.38	1.32011E-001	-8.21161E-006	0.00000E+000	1.32004E-001	0.00000E+000	9	...........	1467.70
	1169	23.4	1.31015E-001	-8.28850E-006	0.00000E+000	1.31005E-001	0.00000E+000	9	...........	1467.70
	1170	23.42	1.30010E-001	-8.36542E-006	0.00000E+000	1.30005E-001	0.00000E+000	9	...........	1467.70
	1171	23.44	1.29014E-001	-8.44396E-006	0.00000E+000	1.29005E-001	0.00000E+000	9	...........	1467.70
	1172	23.46	1.28013E-001	-8.52692E-006	0.00000E+000	1.28006E-001	0.00000E+000	9	...........	1467.70
	1173	23.48	1.26995E-001	-8.60237E-006	0.00000E+000	1.27006E-001	0.00000E+000	9	...........	1467.70
	1174	23.5	1.25987E-001	-8.69403E-006	0.00000E+000	1.25994E-001	0.00000E+000	9	...........	1467.70
	1175	23.52	1.24990E-001	-8.76350E-006	0.00000E+000	1.24994E-001	0.00000E+000	9	...........	1467.70
	1176	23.54	1.23987E-001	-8.84348E-006	0.00000E+000	1.23995E-001	0.00000E+000	9	...........	1467.70
	1177	23.56	1.22985E-001	-8.93028E-006	0.00000E+000	1.22995E-001	0.00000E+000	9	...........	1467.70
	1178	23.58	1.21997E-001	-9.00787E-006	0.00000E+000	1.21995E-001	0.00000E+000	9	...........	1467.70
	1179	23.6	1.20993E-001	-9.09550E-006	0.00000E+000	1.20996E-001	0.00000E+000	9	...........	1467.70
	1180	23.62	1.19996E-001	-9.17640E-006	0.00000E+000	1.19996E-001	0.00000E+000	9	...........	1467.70
	1181	23.64	1.19001E-001	-9.26175E-006	0.00000E+000	1.18996E-001	0.00000E+000	9	...........	1467.70
	1182	23.66	1.17990E-001	-9.34424E-006	0.00000E+000	1.17997E-001	0.00000E+000	9	...........	1467.70
	1183	23.68	1.16998E-001	-9.43009E-006	0.00000E+000	1.16997E-001	0.00000E+000	9	...........	1467.70
	1184	23.7	1.16007E-001	-9.51934E-006	0.00000E+000	1.15997E-001	0.00000E+000	9	...........	1467.70
	1185	23.72	1.14994E-001	-9.60138E-006	0.00000E+000	1.14998E-001	0.00000E+000	9	...........	1467.70
	1186	23.74	1.13977E-001	-9.69157E-006	0.00000E+000	1.13998E-001	0.00000E+000	9	...........	1467.67
	1187	23.76	1.12982E-001	-9.78321E-006	0.00000E+000	1.12999E-001	0.00000E+000	9	...........	1467.61
	1188	23.78	1.11982E-001	-9.87766E-006	0.00000E+000	1.11999E-001	0.00000E+000	9	...........	1467.61
	1189	23.8	1.10996E-001	-9.96637E-006	0.00000E+000	1.10999E-001	0.00000E+000	9	...........	1467.61
	1190	23.82	1.10001E-001	-1.00533E-005	0.00000E+000	1.10000E-001	0.00000E+000	9	...........	1467.61
	1191	23.84	1.09014E-001	-1.01473E-005	0.00000E+000	1.09000E-001	0.00000E+000	9	...........	1467.61
	1192	23.86	1.08009E-001	-1.02407E-005	0.00000E+000	1.08000E-001	0.00000E+000	9	...........	1467.61
	1193	23.88	1.06998E-001	-1.03351E-005	0.00000E+000	1.07001E-001	0.00000E+000	9	...........	1467.61
	1194	23.9	1.06001E-001	-1.04226E-005	0.00000E+000	1.06001E-001	0.00000E+000	9	...........	1467.61
	1195	23.92	1.04997E-001	-1.05153E-005	0.00000E+000	1.05001E-001	0.00000E+000	9	...........	1467.61
	1196	23.94	1.04014E-001	-1.06126E-005	0.00000E+000	1.04002E-001	0.00000E+000	9	...........	1467.61
	1197	23.96	1.03018E-001	-1.07008E-005	0.00000E+000	1.03002E-001	0.00000E+000	9	...........	1467.61
	1198	23.98	1.01996E-001	-1.08039E-005	0.00000E+000	1.02002E-001	0.00000E+000	9	...........	1467.61
	1199	24	1.00998E-001	-1.08978E-005	0.00000E+000	1.01003E-001	0.00000E+000	9	...........	1467.61
	1200	24.02	1.00006E-001	-1.09913E-005	0.00000E+000	1.00003E-001	0.00000E+000	9	...........	1467.61
CURVE4	TABLE
	Pt	T	Vf	Im	Vu	Sig	Ach	IERange	Over	Temp
	#	s	V vs. Ref.	A	V	V	V	#	bits	deg C
	1201	24.04	9.99959E-002	-1.02293E-005	0.00000E+000	1.00003E-001	0.00000E+000	9	...........	1467.61