File: input/ECSA_test/CV_ECSA_#1_#9.DTA
EXPLAIN
TAG	CV
TITLE	LABEL	ECSA	Test Identifier
DATE	LABEL	2/13/2024	Date
TIME	LABEL	8:50:28	Time
NOTES	NOTES	1	Notes...

PSTAT	PSTAT	IFC1010-36068	Potentiostat
VINIT	POTEN	1.00000E-001	F	Initial E (V)
VLIMIT1	POTEN	3.00000E-001	F	Scan Limit 1 (V)
VLIMIT2	POTEN	1.00000E-001	F	Scan Limit 2 (V)
VFINAL	POTEN	1.00000E-001	F	Final E (V)
SCANRATE	QUANT	8.99998E+001	A Real Number
STEPSIZE	QUANT	1.00000E+000	Step Size (mV)
CYCLES	IQUANT	3	Cycles (#)
IMODE	SELECTOR	1	I/E Range Mode
IRANGE	QUANT	3.00000E-001	Max Current (mA)
AREA	QUANT	1.00000E+000	Sample Area (cm^2)
EQDELAY	QUANT	0.00000E+000	Equil. Time (s)
IRCOMP	SELECTOR	0	IRComp
PFCOR	QUANT	5.00000E+001	PF Corr. (ohm)
SAMPLINGMODE	SELECTOR	2	Sampling Mode
EOC	QUANT	0.3246219	Open Circuit (V)
ELECTRODETYPE	SELECTOR	0	Electrode Type
STRIPPING	TOGGLE	F	Used for Stripping
SEQUENCER	TOGGLE	TRUE	Run as Sequence
PSTATMODEL	IQUANT	64	Pstat Model
PSTATSECTION	LABEL	IFC1010-36068	Pstat Section
PSTATSERIALNO	LABEL	36068	Pstat Serial Number
CTRLMODE	IQUANT	1	Control Mode
ELECTROMETER	IQUANT	0	RE=0 or CS=1
IESTAB	IQUANT	2	I/E Stability
CASPEED	IQUANT	4	Control Amp Speed
CONVENTION	IQUANT	1	Current Convention
ICHRANGE	IQUANT	2	Ich Range
ICHRANGEMODE	TOGGLE	F	Ich Auto Range
ICHOFFSETENABLE	TOGGLE	F	Ich Offset Enable
ICHOFFSET	QUANT	0	Ich Offset (V)
ICHFILTER	IQUANT	3	Ich Filter
VCHRANGE	IQUANT	2	Vch Range
VCHRANGEMODE	TOGGLE	F	Vch Auto Range
VCHOFFSETENABLE	TOGGLE	F	Vch Offset Enable
VCHOFFSET	QUANT	0	Vch Offset (V)
VCHFILTER	IQUANT	3	Vch Filter
IERANGELOWERLIMIT	IQUANT	4	I/E Range Lower Limit
IERANGEMODE	TOGGLE	F	I/E AutoRange
IERANGE	IQUANT	9	I/E Range
ACHSELECT	IQUANT	0	Ach Select
ACHRANGE	IQUANT	2	Ach Range
ACHOFFSETENABLE	TOGGLE	F	Ach Offset Enable
ACHOFFSET	QUANT	0	Ach Offset (V)
ACHFILTER	IQUANT	1	Ach Filter
SENSECABLEID	IQUANT	13	Sense Cable ID
PWRCABLEID	IQUANT	13	Power Cable ID
DCCALDATE	LABEL	8/11/2023	DC Calibration Date
ACCALDATE	LABEL	6/2/2023	AC Calibration Date
FRAMEWORKVERSION	LABEL	7.10.3	Framework Version
INSTRUMENTVERSION	LABEL	4.91	Instrument Version
COMMVERSION	LABEL	3.10	Communications Version
CPUPLDVERSION	LABEL	2.22	CPU PLD Version
CTRLPLDVERSION	LABEL	0.00	CTRL PLD Version
PSTATPLDVERSION	LABEL	0.00	PSTAT PLD Version
CURVE1	TABLE
	Pt	T	Vf	Im	Vu	Sig	Ach	IERange	Over	Temp
	#	s	V vs. Ref.	A	V	V	V	#	bits	deg C
	0	0.011117	1.00001E-001	-1.05217E-005	0.00000E+000	1.00003E-001	0.00000E+000	9	...........	1467.43
	1	0.022233	1.00973E-001	-9.02673E-006	0.00000E+000	1.01003E-001	0.00000E+000	9	...........	1467.43
	2	0.03335	1.01969E-001	-8.75063E-006	0.00000E+000	1.02002E-001	0.00000E+000	9	...........	1467.43
	3	0.044467	1.02991E-001	-8.47759E-006	0.00000E+000	1.03002E-001	0.00000E+000	9	...........	1467.43
	4	0.055583	1.03978E-001	-8.31090E-006	0.00000E+000	1.04002E-001	0.00000E+000	9	...........	1467.43
	5	0.0667	1.04970E-001	-8.09484E-006	0.00000E+000	1.05001E-001	0.00000E+000	9	...........	1467.43
	6	0.077817	1.05968E-001	-7.92219E-006	0.00000E+000	1.06001E-001	0.00000E+000	9	...........	1467.43
	7	0.088933	1.06966E-001	-7.76617E-006	0.00000E+000	1.07001E-001	0.00000E+000	9	...........	1467.43
	8	0.10005	1.07963E-001	-7.59006E-006	0.00000E+000	1.08000E-001	0.00000E+000	9	...........	1467.43
	9	0.111167	1.08970E-001	-7.46386E-006	0.00000E+000	1.09000E-001	0.00000E+000	9	...........	1467.43
	10	0.122283	1.09971E-001	-7.27763E-006	0.00000E+000	1.10000E-001	0.00000E+000	9	...........	1467.43
	11	0.1334	1.10972E-001	-7.14983E-006	0.00000E+000	1.11012E-001	0.00000E+000	9	...........	1467.43
	12	0.144517	1.11971E-001	-6.98484E-006	0.00000E+000	1.12011E-001	0.00000E+000	9	...........	1467.43
	13	0.155633	1.12964E-001	-6.87288E-006	0.00000E+000	1.13011E-001	0.00000E+000	9	...........	1467.43
	14	0.16675	1.13962E-001	-6.71521E-006	0.00000E+000	1.14011E-001	0.00000E+000	9	...........	1467.43
	15	0.177867	1.14988E-001	-6.58610E-006	0.00000E+000	1.15010E-001	0.00000E+000	9	...........	1467.43
	16	0.188983	1.15989E-001	-6.47174E-006	0.00000E+000	1.16010E-001	0.00000E+000	9	...........	1467.43
	17	0.2001	1.16981E-001	-6.31712E-006	0.00000E+000	1.17010E-001	0.00000E+000	9	...........	1467.43
	18	0.211217	1.17971E-001	-6.22526E-006	0.00000E+000	1.18009E-001	0.00000E+000	9	...........	1467.43
	19	0.222333	1.18974E-001	-6.05746E-006	0.00000E+000	1.19009E-001	0.00000E+000	9	...........	1467.43
	20	0.23345	1.19978E-001	-5.97482E-006	0.00000E+000	1.20009E-001	0.00000E+000	9	...........	1467.43
	21	0.244567	1.20972E-001	-5.82011E-006	0.00000E+000	1.21008E-001	0.00000E+000	9	...........	1467.43
	22	0.255683	1.21977E-001	-5.73000E-006	0.00000E+000	1.22008E-001	0.00000E+000	9	...........	1467.43
	23	0.2668	1.22963E-001	-5.60170E-006	0.00000E+000	1.23008E-001	0.00000E+000	9	...........	1467.43
	24	0.277917	1.23960E-001	-5.48382E-006	0.00000E+000	1.24007E-001	0.00000E+000	9	...........	1467.43
	25	0.289033	1.24971E-001	-5.38138E-006	0.00000E+000	1.25007E-001	0.00000E+000	9	...........	1467.43
	26	0.30015	1.25976E-001	-5.23594E-006	0.00000E+000	1.26019E-001	0.00000E+000	9	...........	1467.43
	27	0.311267	1.26972E-001	-5.17534E-006	0.00000E+000	1.27019E-001	0.00000E+000	9	...........	1467.43
	28	0.322383	1.27987E-001	-5.02620E-006	0.00000E+000	1.28018E-001	0.00000E+000	9	...........	1467.43
	29	0.3335	1.28983E-001	-4.95653E-006	0.00000E+000	1.29018E-001	0.00000E+000	9	...........	1467.43
	30	0.344617	1.29982E-001	-4.81901E-006	0.00000E+000	1.30018E-001	0.00000E+000	9	...........	1467.43
	31	0.355733	1.30986E-001	-4.75005E-006	0.00000E+000	1.31017E-001	0.00000E+000	9	...........	1467.43
	32	0.36685	1.31988E-001	-4.63342E-006	0.00000E+000	1.32017E-001	0.00000E+000	9	...........	1467.43
	33	0.377967	1.32984E-001	-4.52647E-006	0.00000E+000	1.33017E-001	0.00000E+000	9	...........	1467.43
	34	0.389083	1.33979E-001	-4.45019E-006	0.00000E+000	1.34016E-001	0.00000E+000	9	...........	1467.43
	35	0.4002	1.34983E-001	-4.32821E-006	0.00000E+000	1.35016E-001	0.00000E+000	9	...........	1467.43
	36	0.411317	1.35976E-001	-4.27248E-006	0.00000E+000	1.36015E-001	0.00000E+000	9	...........	1467.43
	37	0.422433	1.36975E-001	-4.14002E-006	0.00000E+000	1.37015E-001	0.00000E+000	9	...........	1467.43
	38	0.43355	1.37981E-001	-4.08148E-006	0.00000E+000	1.38015E-001	0.00000E+000	9	...........	1467.43
	39	0.444667	1.38981E-001	-3.96039E-006	0.00000E+000	1.39014E-001	0.00000E+000	9	...........	1467.43
	40	0.455783	1.39974E-001	-3.90301E-006	0.00000E+000	1.40014E-001	0.00000E+000	9	...........	1467.43
	41	0.4669	1.41009E-001	-3.78368E-006	0.00000E+000	1.41026E-001	0.00000E+000	9	...........	1467.43
	42	0.478017	1.42004E-001	-3.70264E-006	0.00000E+000	1.42026E-001	0.00000E+000	9	...........	1467.43
	43	0.489133	1.43001E-001	-3.63468E-006	0.00000E+000	1.43026E-001	0.00000E+000	9	...........	1467.43
	44	0.50025	1.43990E-001	-3.52071E-006	0.00000E+000	1.44025E-001	0.00000E+000	9	...........	1467.43
	45	0.511367	1.44987E-001	-3.47586E-006	0.00000E+000	1.45025E-001	0.00000E+000	9	...........	1467.43
	46	0.522483	1.45983E-001	-3.35337E-006	0.00000E+000	1.46024E-001	0.00000E+000	9	...........	1467.43
	47	0.5336	1.46990E-001	-3.30781E-006	0.00000E+000	1.47024E-001	0.00000E+000	9	...........	1467.43
	48	0.544717	1.47986E-001	-3.20377E-006	0.00000E+000	1.48024E-001	0.00000E+000	9	...........	1467.43
	49	0.555833	1.48974E-001	-3.14588E-006	0.00000E+000	1.49023E-001	0.00000E+000	9	...........	1467.43
	50	0.56695	1.49976E-001	-3.06078E-006	0.00000E+000	1.50023E-001	0.00000E+000	9	...........	1467.43
	51	0.578067	1.50970E-001	-2.96170E-006	0.00000E+000	1.51023E-001	0.00000E+000	9	...........	1467.43
	52	0.589183	1.51974E-001	-2.91008E-006	0.00000E+000	1.52022E-001	0.00000E+000	9	...........	1467.43
	53	0.6003	1.52960E-001	-2.80082E-006	0.00000E+000	1.53022E-001	0.00000E+000	9	...........	1467.43
	54	0.611417	1.53975E-001	-2.76945E-006	0.00000E+000	1.54022E-001	0.00000E+000	9	...........	1467.43
	55	0.622533	1.54982E-001	-2.65132E-006	0.00000E+000	1.55021E-001	0.00000E+000	9	...........	1467.43
	56	0.63365	1.55995E-001	-2.60091E-006	0.00000E+000	1.56034E-001	0.00000E+000	9	...........	1467.43
	57	0.644767	1.57003E-001	-2.51014E-006	0.00000E+000	1.57033E-001	0.00000E+000	9	...........	1467.43
	58	0.655883	1.57993E-001	-2.45391E-006	0.00000E+000	1.58033E-001	0.00000E+000	9	...........	1467.43
	59	0.667	1.58982E-001	-2.38771E-006	0.00000E+000	1.59032E-001	0.00000E+000	9	...........	1467.43
	60	0.678117	1.59991E-001	-2.29328E-006	0.00000E+000	1.60032E-001	0.00000E+000	9	...........	1467.43
	61	0.689233	1.60984E-001	-2.25359E-006	0.00000E+000	1.61032E-001	0.00000E+000	9	...........	1467.43
	62	0.70035	1.61981E-001	-2.14499E-006	0.00000E+000	1.62031E-001	0.00000E+000	9	...........	1467.43
	63	0.711467	1.62980E-001	-2.12268E-006	0.00000E+000	1.63031E-001	0.00000E+000	9	...........	1467.43
	64	0.722583	1.63983E-001	-2.01172E-006	0.00000E+000	1.64031E-001	0.00000E+000	9	...........	1467.43
	65	0.7337	1.64970E-001	-1.98286E-006	0.00000E+000	1.65030E-001	0.00000E+000	9	...........	1467.43
	66	0.744817	1.65962E-001	-1.89039E-006	0.00000E+000	1.66030E-001	0.00000E+000	9	...........	1467.43
	67	0.755933	1.66992E-001	-1.83406E-006	0.00000E+000	1.67030E-001	0.00000E+000	9	...........	1467.43
	68	0.76705	1.67992E-001	-1.77757E-006	0.00000E+000	1.68029E-001	0.00000E+000	9	...........	1467.43
	69	0.778167	1.68992E-001	-1.69032E-006	0.00000E+000	1.69029E-001	0.00000E+000	9	...........	1467.43
	70	0.789283	1.70009E-001	-1.64165E-006	0.00000E+000	1.70041E-001	0.00000E+000	9	...........	1467.43
	71	0.8004	1.70999E-001	-1.55550E-006	0.00000E+000	1.71041E-001	0.00000E+000	9	...........	1467.43
	72	0.811517	1.72002E-001	-1.53044E-006	0.00000E+000	1.72040E-001	0.00000E+000	9	...........	1467.43
	73	0.822633	1.73008E-001	-1.43532E-006	0.00000E+000	1.73040E-001	0.00000E+000	9	...........	1467.43
	74	0.83375	1.74003E-001	-1.40660E-006	0.00000E+000	1.74040E-001	0.00000E+000	9	...........	1467.43
	75	0.844867	1.75001E-001	-1.32050E-006	0.00000E+000	1.75039E-001	0.00000E+000	9	...........	1467.43
	76	0.855983	1.76009E-001	-1.26347E-006	0.00000E+000	1.76039E-001	0.00000E+000	9	...........	1467.43
	77	0.8671	1.76996E-001	-1.21145E-006	0.00000E+000	1.77039E-001	0.00000E+000	9	...........	1467.43
	78	0.878217	1.77992E-001	-1.12905E-006	0.00000E+000	1.78038E-001	0.00000E+000	9	...........	1467.43
	79	0.889333	1.78993E-001	-1.09723E-006	0.00000E+000	1.79038E-001	0.00000E+000	9	...........	1467.43
	80	0.90045	1.80004E-001	-1.01057E-006	0.00000E+000	1.80038E-001	0.00000E+000	9	...........	1467.43
	81	0.911567	1.81019E-001	-9.88322E-007	0.00000E+000	1.81037E-001	0.00000E+000	9	...........	1467.43
	82	0.922683	1.82011E-001	-8.88288E-007	0.00000E+000	1.82037E-001	0.00000E+000	9	...........	1467.43
	83	0.9338	1.83006E-001	-8.59520E-007	0.00000E+000	1.83037E-001	0.00000E+000	9	...........	1467.43
	84	0.944917	1.84008E-001	-7.91561E-007	0.00000E+000	1.84036E-001	0.00000E+000	9	...........	1467.43
	85	0.95603	1.85013E-001	-7.17236E-007	0.00000E+000	1.85048E-001	0.00000E+000	9	...........	1467.43
	86	0.96715	1.86017E-001	-6.86464E-007	0.00000E+000	1.86048E-001	0.00000E+000	9	...........	1467.43
	87	0.97827	1.87014E-001	-6.14946E-007	0.00000E+000	1.87048E-001	0.00000E+000	9	...........	1467.43
	88	0.98938	1.88015E-001	-5.84926E-007	0.00000E+000	1.88047E-001	0.00000E+000	9	...........	1467.43
	89	1.0005	1.89004E-001	-4.87948E-007	0.00000E+000	1.89047E-001	0.00000E+000	9	...........	1467.43
	90	1.01162	1.90004E-001	-4.74968E-007	0.00000E+000	1.90047E-001	0.00000E+000	9	...........	1467.43
	91	1.02273	1.91006E-001	-3.84556E-007	0.00000E+000	1.91046E-001	0.00000E+000	9	...........	1467.43
	92	1.03385	1.92034E-001	-3.57392E-007	0.00000E+000	1.92046E-001	0.00000E+000	9	...........	1467.43
	93	1.04497	1.93031E-001	-2.92239E-007	0.00000E+000	1.93046E-001	0.00000E+000	9	...........	1467.43
	94	1.05608	1.94032E-001	-2.31647E-007	0.00000E+000	1.94045E-001	0.00000E+000	9	...........	1467.43
	95	1.0672	1.95023E-001	-1.96765E-007	0.00000E+000	1.95045E-001	0.00000E+000	9	...........	1467.43
	96	1.07832	1.96024E-001	-1.22040E-007	0.00000E+000	1.96045E-001	0.00000E+000	9	...........	1467.43
	97	1.08943	1.97020E-001	-9.62294E-008	0.00000E+000	1.97044E-001	0.00000E+000	9	...........	1467.43
	98	1.10055	1.98015E-001	-3.16105E-009	0.00000E+000	1.98044E-001	0.00000E+000	9	...........	1467.43
	99	1.11167	1.99017E-001	8.71682E-009	0.00000E+000	1.99043E-001	0.00000E+000	9	...........	1467.43
	100	1.12278	2.00025E-001	1.04191E-007	0.00000E+000	2.00056E-001	0.00000E+000	9	...........	1467.43
	101	1.1339	2.01021E-001	1.19076E-007	0.00000E+000	2.01055E-001	0.00000E+000	9	...........	1467.43
	102	1.14502	2.02023E-001	1.83427E-007	0.00000E+000	2.02055E-001	0.00000E+000	9	...........	1467.45
	103	1.15613	2.03016E-001	2.41012E-007	0.00000E+000	2.03055E-001	0.00000E+000	9	...........	1467.52
	104	1.16725	2.04019E-001	2.71082E-007	0.00000E+000	2.04054E-001	0.00000E+000	9	...........	1467.52
	105	1.17837	2.05029E-001	3.38891E-007	0.00000E+000	2.05054E-001	0.00000E+000	9	...........	1467.52
	106	1.18948	2.06024E-001	3.50819E-007	0.00000E+000	2.06054E-001	0.00000E+000	9	...........	1467.52
	107	1.2006	2.07009E-001	4.42935E-007	0.00000E+000	2.07053E-001	0.00000E+000	9	...........	1467.52
	108	1.21172	2.08016E-001	4.57720E-007	0.00000E+000	2.08053E-001	0.00000E+000	9	...........	1467.52
	109	1.22283	2.09017E-001	5.34099E-007	0.00000E+000	2.09053E-001	0.00000E+000	9	...........	1467.52
	110	1.23395	2.10009E-001	5.48884E-007	0.00000E+000	2.10052E-001	0.00000E+000	9	...........	1467.52
	111	1.24507	2.11011E-001	6.05066E-007	0.00000E+000	2.11052E-001	0.00000E+000	9	...........	1467.52
	112	1.25618	2.12021E-001	6.58591E-007	0.00000E+000	2.12051E-001	0.00000E+000	9	...........	1467.52
	113	1.2673	2.13006E-001	6.90817E-007	0.00000E+000	2.13051E-001	0.00000E+000	9	...........	1467.52
	114	1.27842	2.14000E-001	7.63688E-007	0.00000E+000	2.14051E-001	0.00000E+000	9	...........	1467.52
	115	1.28953	2.15013E-001	7.89047E-007	0.00000E+000	2.15063E-001	0.00000E+000	9	...........	1467.52
	116	1.30065	2.16009E-001	8.58059E-007	0.00000E+000	2.16063E-001	0.00000E+000	9	...........	1467.52
	117	1.31177	2.17007E-001	8.66178E-007	0.00000E+000	2.17062E-001	0.00000E+000	9	...........	1467.52
	118	1.32288	2.18033E-001	9.41756E-007	0.00000E+000	2.18062E-001	0.00000E+000	9	...........	1467.52
	119	1.334	2.19023E-001	9.66564E-007	0.00000E+000	2.19062E-001	0.00000E+000	9	...........	1467.52
	120	1.34512	2.20019E-001	1.00861E-006	0.00000E+000	2.20061E-001	0.00000E+000	9	...........	1467.52
	121	1.35623	2.21024E-001	1.07226E-006	0.00000E+000	2.21061E-001	0.00000E+000	9	...........	1467.52
	122	1.36735	2.22027E-001	1.09752E-006	0.00000E+000	2.22060E-001	0.00000E+000	9	...........	1467.52
	123	1.37847	2.23019E-001	1.16974E-006	0.00000E+000	2.23060E-001	0.00000E+000	9	...........	1467.52
	124	1.38958	2.24016E-001	1.17064E-006	0.00000E+000	2.24060E-001	0.00000E+000	9	...........	1467.52
	125	1.4007	2.25003E-001	1.25895E-006	0.00000E+000	2.25059E-001	0.00000E+000	9	...........	1467.52
	126	1.41182	2.25996E-001	1.26121E-006	0.00000E+000	2.26059E-001	0.00000E+000	9	...........	1467.52
	127	1.42293	2.27004E-001	1.33027E-006	0.00000E+000	2.27059E-001	0.00000E+000	9	...........	1467.52
	128	1.43405	2.28015E-001	1.35292E-006	0.00000E+000	2.28058E-001	0.00000E+000	9	...........	1467.52
	129	1.44517	2.29025E-001	1.40710E-006	0.00000E+000	2.29071E-001	0.00000E+000	9	...........	1467.52
	130	1.45628	2.30016E-001	1.45095E-006	0.00000E+000	2.30070E-001	0.00000E+000	9	...........	1467.52
	131	1.4674	2.31033E-001	1.46568E-006	0.00000E+000	2.31070E-001	0.00000E+000	9	...........	1467.52
	132	1.47852	2.32031E-001	1.53149E-006	0.00000E+000	2.32069E-001	0.00000E+000	9	...........	1467.52
	133	1.48963	2.33025E-001	1.52989E-006	0.00000E+000	2.33069E-001	0.00000E+000	9	...........	1467.52
	134	1.50075	2.34031E-001	1.61017E-006	0.00000E+000	2.34069E-001	0.00000E+000	9	...........	1467.52
	135	1.51187	2.35020E-001	1.61634E-006	0.00000E+000	2.35068E-001	0.00000E+000	9	...........	1467.52
	136	1.52298	2.36007E-001	1.67518E-006	0.00000E+000	2.36068E-001	0.00000E+000	9	...........	1467.52
	137	1.5341	2.37020E-001	1.70114E-006	0.00000E+000	2.37068E-001	0.00000E+000	9	...........	1467.52
	138	1.54522	2.38011E-001	1.73251E-006	0.00000E+000	2.38067E-001	0.00000E+000	9	...........	1467.52
	139	1.55633	2.39011E-001	1.78468E-006	0.00000E+000	2.39067E-001	0.00000E+000	9	...........	1467.52
	140	1.56745	2.40015E-001	1.80197E-006	0.00000E+000	2.40067E-001	0.00000E+000	9	...........	1467.52
	141	1.57857	2.41008E-001	1.87094E-006	0.00000E+000	2.41066E-001	0.00000E+000	9	...........	1467.52
	142	1.58968	2.42009E-001	1.86733E-006	0.00000E+000	2.42066E-001	0.00000E+000	9	...........	1467.52
	143	1.6008	2.43030E-001	1.94341E-006	0.00000E+000	2.43066E-001	0.00000E+000	9	...........	1467.52
	144	1.61192	2.44044E-001	1.96511E-006	0.00000E+000	2.44078E-001	0.00000E+000	9	...........	1467.52
	145	1.62303	2.45042E-001	2.00430E-006	0.00000E+000	2.45077E-001	0.00000E+000	9	...........	1467.52
	146	1.63415	2.46026E-001	2.03377E-006	0.00000E+000	2.46077E-001	0.00000E+000	9	...........	1467.52
	147	1.64527	2.47032E-001	2.05938E-006	0.00000E+000	2.47077E-001	0.00000E+000	9	...........	1467.52
	148	1.65638	2.48030E-001	2.11355E-006	0.00000E+000	2.48076E-001	0.00000E+000	9	...........	1467.52
	149	1.6675	2.49025E-001	2.11922E-006	0.00000E+000	2.49076E-001	0.00000E+000	9	...........	1467.52
	150	1.67862	2.50033E-001	2.19084E-006	0.00000E+000	2.50076E-001	0.00000E+000	9	...........	1467.52
	151	1.68973	2.51027E-001	2.19018E-006	0.00000E+000	2.51075E-001	0.00000E+000	9	...........	1467.52
	152	1.70085	2.52016E-001	2.25774E-006	0.00000E+000	2.52075E-001	0.00000E+000	9	...........	1467.52
	153	1.71197	2.53015E-001	2.26506E-006	0.00000E+000	2.53075E-001	0.00000E+000	9	...........	1467.52
	154	1.72308	2.54012E-001	2.32039E-006	0.00000E+000	2.54074E-001	0.00000E+000	9	...........	1467.52
	155	1.7342	2.55015E-001	2.35016E-006	0.00000E+000	2.55074E-001	0.00000E+000	9	...........	1467.52
	156	1.74532	2.56022E-001	2.37346E-006	0.00000E+000	2.56074E-001	0.00000E+000	9	...........	1467.52
	157	1.75643	2.57035E-001	2.42253E-006	0.00000E+000	2.57073E-001	0.00000E+000	9	...........	1467.52
	158	1.76755	2.58031E-001	2.43095E-006	0.00000E+000	2.58073E-001	0.00000E+000	9	...........	1467.52
	159	1.77867	2.59044E-001	2.51605E-006	0.00000E+000	2.59085E-001	0.00000E+000	9	...........	1467.52
	160	1.78978	2.60036E-001	2.49675E-006	0.00000E+000	2.60085E-001	0.00000E+000	9	...........	1467.52
	161	1.8009	2.61036E-001	2.57033E-006	0.00000E+000	2.61084E-001	0.00000E+000	9	...........	1467.52
	162	1.81202	2.62028E-001	2.56877E-006	0.00000E+000	2.62084E-001	0.00000E+000	9	...........	1467.52
	163	1.82313	2.63032E-001	2.61974E-006	0.00000E+000	2.63084E-001	0.00000E+000	9	...........	1467.52
	164	1.83425	2.64036E-001	2.65583E-006	0.00000E+000	2.64083E-001	0.00000E+000	9	...........	1467.52
	165	1.84537	2.65028E-001	2.68089E-006	0.00000E+000	2.65083E-001	0.00000E+000	9	...........	1467.52
	166	1.85648	2.66033E-001	2.72945E-006	0.00000E+000	2.66083E-001	0.00000E+000	9	...........	1467.52
	167	1.8676	2.67017E-001	2.74002E-006	0.00000E+000	2.67082E-001	0.00000E+000	9	...........	1467.52
	168	1.87872	2.68006E-001	2.80257E-006	0.00000E+000	2.68082E-001	0.00000E+000	9	...........	1467.52
	169	1.88983	2.69045E-001	2.79139E-006	0.00000E+000	2.69082E-001	0.00000E+000	9	...........	1467.52
	170	1.90095	2.70037E-001	2.86301E-006	0.00000E+000	2.70081E-001	0.00000E+000	9	...........	1467.52
	171	1.91207	2.71034E-001	2.86838E-006	0.00000E+000	2.71081E-001	0.00000E+000	9	...........	1467.52
	172	1.92318	2.72033E-001	2.91664E-006	0.00000E+000	2.72081E-001	0.00000E+000	9	...........	1467.52
	173	1.9343	2.73033E-001	2.94566E-006	0.00000E+000	2.73080E-001	0.00000E+000	9	...........	1467.52
	174	1.94542	2.74041E-001	2.98099E-006	0.00000E+000	2.74092E-001	0.00000E+000	9	...........	1467.52
	175	1.95653	2.75052E-001	3.02439E-006	0.00000E+000	2.75092E-001	0.00000E+000	9	...........	1467.52
	176	1.96765	2.76053E-001	3.02143E-006	0.00000E+000	2.76092E-001	0.00000E+000	9	...........	1467.52
	177	1.97877	2.77049E-001	3.09611E-006	0.00000E+000	2.77091E-001	0.00000E+000	9	...........	1467.52
	178	1.98988	2.78041E-001	3.08619E-006	0.00000E+000	2.78091E-001	0.00000E+000	9	...........	1467.52
	179	2.001	2.79037E-001	3.15785E-006	0.00000E+000	2.79091E-001	0.00000E+000	9	...........	1467.52
	180	2.01212	2.80027E-001	3.16778E-006	0.00000E+000	2.80090E-001	0.00000E+000	9	...........	1467.52
	181	2.02323	2.81023E-001	3.20852E-006	0.00000E+000	2.81090E-001	0.00000E+000	9	...........	1467.52
	182	2.03435	2.82037E-001	3.24872E-006	0.00000E+000	2.82090E-001	0.00000E+000	9	...........	1467.52
	183	2.04547	2.83042E-001	3.26270E-006	0.00000E+000	2.83089E-001	0.00000E+000	9	...........	1467.52
	184	2.05658	2.84045E-001	3.32349E-006	0.00000E+000	2.84089E-001	0.00000E+000	9	...........	1467.52
	185	2.0677	2.85042E-001	3.31943E-006	0.00000E+000	2.85088E-001	0.00000E+000	9	...........	1467.52
	186	2.07882	2.86040E-001	3.39261E-006	0.00000E+000	2.86088E-001	0.00000E+000	9	...........	1467.52
	187	2.08993	2.87036E-001	3.39130E-006	0.00000E+000	2.87088E-001	0.00000E+000	9	...........	1467.52
	188	2.10105	2.88064E-001	3.46954E-006	0.00000E+000	2.88100E-001	0.00000E+000	9	...........	1467.52
	189	2.11217	2.89058E-001	3.45851E-006	0.00000E+000	2.89100E-001	0.00000E+000	9	...........	1467.52
	190	2.12328	2.90052E-001	3.50352E-006	0.00000E+000	2.90099E-001	0.00000E+000	9	...........	1467.52
	191	2.1344	2.91043E-001	3.55033E-006	0.00000E+000	2.91099E-001	0.00000E+000	9	...........	1467.52
	192	2.14552	2.92051E-001	3.56381E-006	0.00000E+000	2.92099E-001	0.00000E+000	9	...........	1467.52
	193	2.15663	2.93041E-001	3.62630E-006	0.00000E+000	2.93098E-001	0.00000E+000	9	...........	1467.52
	194	2.16775	2.94034E-001	3.62209E-006	0.00000E+000	2.94098E-001	0.00000E+000	9	...........	1467.52
	195	2.17887	2.95071E-001	3.69055E-006	0.00000E+000	2.95097E-001	0.00000E+000	9	...........	1467.52
	196	2.18998	2.96056E-001	3.68634E-006	0.00000E+000	2.96097E-001	0.00000E+000	9	...........	1467.52
	197	2.2011	2.97050E-001	3.75967E-006	0.00000E+000	2.97097E-001	0.00000E+000	9	...........	1467.52
	198	2.21222	2.98051E-001	3.77089E-006	0.00000E+000	2.98096E-001	0.00000E+000	9	...........	1467.52
	199	2.22333	2.99048E-001	3.80688E-006	0.00000E+000	2.99096E-001	0.00000E+000	9	...........	1467.52
	200	2.23445	3.00050E-001	3.85399E-006	0.00000E+000	3.00096E-001	0.00000E+000	9	...........	1467.52
	201	2.24557	2.99095E-001	1.42138E-006	0.00000E+000	2.99096E-001	0.00000E+000	9	...........	1467.52
	202	2.25668	2.98092E-001	1.17225E-006	0.00000E+000	2.98096E-001	0.00000E+000	9	...........	1467.52
	203	2.2678	2.97084E-001	9.41104E-007	0.00000E+000	2.97097E-001	0.00000E+000	9	...........	1467.52
	204	2.27892	2.96095E-001	8.25934E-007	0.00000E+000	2.96097E-001	0.00000E+000	9	...........	1467.52
	205	2.29003	2.95111E-001	6.69718E-007	0.00000E+000	2.95097E-001	0.00000E+000	9	...........	1467.52
	206	2.30115	2.94075E-001	5.70685E-007	0.00000E+000	2.94098E-001	0.00000E+000	9	...........	1467.52
	207	2.31227	2.93080E-001	4.52909E-007	0.00000E+000	2.93098E-001	0.00000E+000	9	...........	1467.52
	208	2.32338	2.92083E-001	3.50519E-007	0.00000E+000	2.92099E-001	0.00000E+000	9	...........	1467.52
	209	2.3345	2.91081E-001	2.72987E-007	0.00000E+000	2.91099E-001	0.00000E+000	9	...........	1467.52
	210	2.34562	2.90099E-001	1.66838E-007	0.00000E+000	2.90099E-001	0.00000E+000	9	...........	1467.52
	211	2.35673	2.89097E-001	1.18123E-007	0.00000E+000	2.89100E-001	0.00000E+000	9	...........	1467.52
	212	2.36785	2.88105E-001	-3.56198E-009	0.00000E+000	2.88100E-001	0.00000E+000	9	...........	1467.52
	213	2.37897	2.87083E-001	-4.86678E-008	0.00000E+000	2.87088E-001	0.00000E+000	9	...........	1467.52
	214	2.39008	2.86088E-001	-1.40182E-007	0.00000E+000	2.86088E-001	0.00000E+000	9	...........	1467.52
	215	2.4012	2.85091E-001	-1.85188E-007	0.00000E+000	2.85088E-001	0.00000E+000	9	...........	1467.52
	216	2.41232	2.84097E-001	-2.54601E-007	0.00000E+000	2.84089E-001	0.00000E+000	9	...........	1467.52
	217	2.42343	2.83098E-001	-3.33386E-007	0.00000E+000	2.83089E-001	0.00000E+000	9	...........	1467.52
	218	2.43455	2.82084E-001	-3.80897E-007	0.00000E+000	2.82090E-001	0.00000E+000	9	...........	1467.52
	219	2.44567	2.81069E-001	-4.63341E-007	0.00000E+000	2.81090E-001	0.00000E+000	9	...........	1467.52
	220	2.45678	2.80075E-001	-4.90805E-007	0.00000E+000	2.80090E-001	0.00000E+000	9	...........	1467.52
	221	2.4679	2.79080E-001	-5.86981E-007	0.00000E+000	2.79091E-001	0.00000E+000	9	...........	1467.52
	222	2.47902	2.78084E-001	-6.19607E-007	0.00000E+000	2.78091E-001	0.00000E+000	9	...........	1467.52
	223	2.49013	2.77094E-001	-6.95736E-007	0.00000E+000	2.77091E-001	0.00000E+000	9	...........	1467.52
	224	2.50125	2.76098E-001	-7.29465E-007	0.00000E+000	2.76092E-001	0.00000E+000	9	...........	1467.52
	225	2.51237	2.75099E-001	-7.87351E-007	0.00000E+000	2.75092E-001	0.00000E+000	9	...........	1467.52
	226	2.52348	2.74094E-001	-8.56413E-007	0.00000E+000	2.74092E-001	0.00000E+000	9	...........	1467.52
	227	2.5346	2.73085E-001	-9.11592E-007	0.00000E+000	2.73080E-001	0.00000E+000	9	...........	1467.52
	228	2.54572	2.72078E-001	-9.71683E-007	0.00000E+000	2.72081E-001	0.00000E+000	9	...........	1467.52
	229	2.55683	2.71092E-001	-9.89074E-007	0.00000E+000	2.71081E-001	0.00000E+000	9	...........	1467.52
	230	2.56795	2.70092E-001	-1.07603E-006	0.00000E+000	2.70081E-001	0.00000E+000	9	...........	1467.52
	231	2.57907	2.69094E-001	-1.09146E-006	0.00000E+000	2.69082E-001	0.00000E+000	9	...........	1467.52
	232	2.59018	2.68070E-001	-1.17717E-006	0.00000E+000	2.68082E-001	0.00000E+000	9	...........	1467.52
	233	2.6013	2.67069E-001	-1.20092E-006	0.00000E+000	2.67082E-001	0.00000E+000	9	...........	1467.52
	234	2.61242	2.66083E-001	-1.25470E-006	0.00000E+000	2.66083E-001	0.00000E+000	9	...........	1467.52
	235	2.62353	2.65078E-001	-1.31484E-006	0.00000E+000	2.65083E-001	0.00000E+000	9	...........	1467.52
	236	2.63465	2.64079E-001	-1.34361E-006	0.00000E+000	2.64083E-001	0.00000E+000	9	...........	1467.52
	237	2.64577	2.63075E-001	-1.41212E-006	0.00000E+000	2.63084E-001	0.00000E+000	9	...........	1467.52
	238	2.65688	2.62067E-001	-1.42349E-006	0.00000E+000	2.62084E-001	0.00000E+000	9	...........	1467.52
	239	2.668	2.61065E-001	-1.50794E-006	0.00000E+000	2.61084E-001	0.00000E+000	9	...........	1467.52
	240	2.67912	2.60070E-001	-1.52152E-006	0.00000E+000	2.60085E-001	0.00000E+000	9	...........	1467.52
	241	2.69023	2.59073E-001	-1.59740E-006	0.00000E+000	2.59085E-001	0.00000E+000	9	...........	1467.52
	242	2.70135	2.58062E-001	-1.63288E-006	0.00000E+000	2.58073E-001	0.00000E+000	9	...........	1467.52
	243	2.71247	2.57064E-001	-1.67002E-006	0.00000E+000	2.57073E-001	0.00000E+000	9	...........	1467.52
	244	2.72358	2.56054E-001	-1.72249E-006	0.00000E+000	2.56074E-001	0.00000E+000	9	...........	1467.52
	245	2.7347	2.55040E-001	-1.74876E-006	0.00000E+000	2.55074E-001	0.00000E+000	9	...........	1467.52
	246	2.74582	2.54043E-001	-1.82584E-006	0.00000E+000	2.54074E-001	0.00000E+000	9	...........	1467.52
	247	2.75693	2.53049E-001	-1.82849E-006	0.00000E+000	2.53075E-001	0.00000E+000	9	...........	1467.52
	248	2.76805	2.52056E-001	-1.90512E-006	0.00000E+000	2.52075E-001	0.00000E+000	9	...........	1467.52
	249	2.77917	2.51063E-001	-1.91790E-006	0.00000E+000	2.51075E-001	0.00000E+000	9	...........	1467.52
	250	2.79028	2.50069E-001	-1.98646E-006	0.00000E+000	2.50076E-001	0.00000E+000	9	...........	1467.52
	251	2.8014	2.49064E-001	-2.01633E-006	0.00000E+000	2.49076E-001	0.00000E+000	9	...........	1467.52
	252	2.81252	2.48067E-001	-2.05933E-006	0.00000E+000	2.48076E-001	0.00000E+000	9	...........	1467.52
	253	2.82363	2.47073E-001	-2.12293E-006	0.00000E+000	2.47077E-001	0.00000E+000	9	...........	1467.52
	254	2.83475	2.46068E-001	-2.13992E-006	0.00000E+000	2.46077E-001	0.00000E+000	9	...........	1467.52
	255	2.84587	2.45083E-001	-2.21430E-006	0.00000E+000	2.45077E-001	0.00000E+000	9	...........	1467.52
	256	2.85698	2.44084E-001	-2.21295E-006	0.00000E+000	2.44078E-001	0.00000E+000	9	...........	1467.52
	257	2.8681	2.43077E-001	-2.31278E-006	0.00000E+000	2.43066E-001	0.00000E+000	9	...........	1467.52
	258	2.87922	2.42045E-001	-2.31544E-006	0.00000E+000	2.42066E-001	0.00000E+000	9	...........	1467.52
	259	2.89033	2.41053E-001	-2.38064E-006	0.00000E+000	2.41066E-001	0.00000E+000	9	...........	1467.52
	260	2.90145	2.40063E-001	-2.41808E-006	0.00000E+000	2.40067E-001	0.00000E+000	9	...........	1467.52
	261	2.91257	2.39057E-001	-2.45717E-006	0.00000E+000	2.39067E-001	0.00000E+000	9	...........	1467.52
	262	2.92368	2.38066E-001	-2.51024E-006	0.00000E+000	2.38067E-001	0.00000E+000	9	...........	1467.52
	263	2.9348	2.37064E-001	-2.53380E-006	0.00000E+000	2.37068E-001	0.00000E+000	9	...........	1467.52
	264	2.94592	2.36063E-001	-2.61238E-006	0.00000E+000	2.36068E-001	0.00000E+000	9	...........	1467.52
	265	2.95703	2.35069E-001	-2.61609E-006	0.00000E+000	2.35068E-001	0.00000E+000	9	...........	1467.52
	266	2.96815	2.34077E-001	-2.70555E-006	0.00000E+000	2.34069E-001	0.00000E+000	9	...........	1467.52
	267	2.97927	2.33075E-001	-2.71232E-006	0.00000E+000	2.33069E-001	0.00000E+000	9	...........	1467.52
	268	2.99038	2.32080E-001	-2.77867E-006	0.00000E+000	2.32069E-001	0.00000E+000	9	...........	1467.52
	269	3.0015	2.31073E-001	-2.81521E-006	0.00000E+000	2.31070E-001	0.00000E+000	9	...........	1467.52
	270	3.01262	2.30056E-001	-2.86006E-006	0.00000E+000	2.30070E-001	0.00000E+000	9	...........	1467.52
	271	3.02373	2.29056E-001	-2.91564E-006	0.00000E+000	2.29071E-001	0.00000E+000	9	...........	1467.52
	272	3.03485	2.28045E-001	-2.95719E-006	0.00000E+000	2.28058E-001	0.00000E+000	9	...........	1467.52
	273	3.04597	2.27046E-001	-3.02460E-006	0.00000E+000	2.27059E-001	0.00000E+000	9	...........	1467.52
	274	3.05708	2.26048E-001	-3.03783E-006	0.00000E+000	2.26059E-001	0.00000E+000	9	...........	1467.52
	275	3.0682	2.25048E-001	-3.11075E-006	0.00000E+000	2.25059E-001	0.00000E+000	9	...........	1467.52
	276	3.07932	2.24059E-001	-3.13325E-006	0.00000E+000	2.24060E-001	0.00000E+000	9	...........	1467.52
	277	3.09043	2.23055E-001	-3.19986E-006	0.00000E+000	2.23060E-001	0.00000E+000	9	...........	1467.52
	278	3.10155	2.22052E-001	-3.23680E-006	0.00000E+000	2.22060E-001	0.00000E+000	9	...........	1467.52
	279	3.11267	2.21057E-001	-3.27318E-006	0.00000E+000	2.21061E-001	0.00000E+000	9	...........	1467.52
	280	3.12378	2.20049E-001	-3.34139E-006	0.00000E+000	2.20061E-001	0.00000E+000	9	...........	1467.52
	281	3.1349	2.19053E-001	-3.35974E-006	0.00000E+000	2.19062E-001	0.00000E+000	9	...........	1467.52
	282	3.14602	2.18062E-001	-3.44669E-006	0.00000E+000	2.18062E-001	0.00000E+000	9	...........	1467.47
	283	3.15713	2.17037E-001	-3.45090E-006	0.00000E+000	2.17062E-001	0.00000E+000	9	...........	1467.43
	284	3.16825	2.16043E-001	-3.53735E-006	0.00000E+000	2.16063E-001	0.00000E+000	9	...........	1467.43
	285	3.17937	2.15045E-001	-3.55991E-006	0.00000E+000	2.15063E-001	0.00000E+000	9	...........	1467.43
	286	3.19048	2.14023E-001	-3.64506E-006	0.00000E+000	2.14051E-001	0.00000E+000	9	...........	1467.43
	287	3.2016	2.13029E-001	-3.68390E-006	0.00000E+000	2.13051E-001	0.00000E+000	9	...........	1467.43
	288	3.21272	2.12046E-001	-3.72143E-006	0.00000E+000	2.12051E-001	0.00000E+000	9	...........	1467.43
	289	3.22383	2.11043E-001	-3.79120E-006	0.00000E+000	2.11052E-001	0.00000E+000	9	...........	1467.43
	290	3.23495	2.10040E-001	-3.81716E-006	0.00000E+000	2.10052E-001	0.00000E+000	9	...........	1467.43
	291	3.24607	2.09046E-001	-3.90827E-006	0.00000E+000	2.09053E-001	0.00000E+000	9	...........	1467.43
	292	3.25718	2.08060E-001	-3.91449E-006	0.00000E+000	2.08053E-001	0.00000E+000	9	...........	1467.43
	293	3.2683	2.07051E-001	-4.00585E-006	0.00000E+000	2.07053E-001	0.00000E+000	9	...........	1467.43
	294	3.27942	2.06063E-001	-4.02881E-006	0.00000E+000	2.06054E-001	0.00000E+000	9	...........	1467.43
	295	3.29053	2.05070E-001	-4.09987E-006	0.00000E+000	2.05054E-001	0.00000E+000	9	...........	1467.43
	296	3.30165	2.04052E-001	-4.15445E-006	0.00000E+000	2.04054E-001	0.00000E+000	9	...........	1467.43
	297	3.31277	2.03056E-001	-4.18943E-006	0.00000E+000	2.03055E-001	0.00000E+000	9	...........	1467.43
	298	3.32388	2.02056E-001	-4.28070E-006	0.00000E+000	2.02055E-001	0.00000E+000	9	...........	1467.43
	299	3.335	2.01054E-001	-4.29383E-006	0.00000E+000	2.01055E-001	0.00000E+000	9	...........	1467.43
	300	3.34612	2.00060E-001	-4.38935E-006	0.00000E+000	2.00056E-001	0.00000E+000	9	...........	1467.43
	301	3.35723	1.99064E-001	-4.42258E-006	0.00000E+000	1.99043E-001	0.00000E+000	9	...........	1467.43
	302	3.36835	1.98043E-001	-4.50011E-006	0.00000E+000	1.98044E-001	0.00000E+000	9	...........	1467.43
	303	3.37947	1.97049E-001	-4.53459E-006	0.00000E+000	1.97044E-001	0.00000E+000	9	...........	1467.43
	304	3.39058	1.96055E-001	-4.59859E-006	0.00000E+000	1.96045E-001	0.00000E+000	9	...........	1467.43
	305	3.4017	1.95055E-001	-4.66144E-006	0.00000E+000	1.95045E-001	0.00000E+000	9	...........	1467.43
	306	3.41282	1.94062E-001	-4.70058E-006	0.00000E+000	1.94045E-001	0.00000E+000	9	...........	1467.43
	307	3.42393	1.93075E-001	-4.78668E-006	0.00000E+000	1.93046E-001	0.00000E+000	9	...........	1467.43
	308	3.43505	1.92083E-001	-4.81124E-006	0.00000E+000	1.92046E-001	0.00000E+000	9	...........	1467.43
	309	3.44617	1.91038E-001	-4.91123E-006	0.00000E+000	1.91046E-001	0.00000E+000	9	...........	1467.43
	310	3.45728	1.90038E-001	-4.93348E-006	0.00000E+000	1.90047E-001	0.00000E+000	9	...........	1467.43
	311	3.4684	1.89053E-001	-5.02790E-006	0.00000E+000	1.89047E-001	0.00000E+000	9	...........	1467.43
	312	3.47952	1.88072E-001	-5.06098E-006	0.00000E+000	1.88047E-001	0.00000E+000	9	...........	1467.43
	313	3.49063	1.87068E-001	-5.12568E-006	0.00000E+000	1.87048E-001	0.00000E+000	9	...........	1467.43
	314	3.50175	1.86059E-001	-5.20276E-006	0.00000E+000	1.86048E-001	0.00000E+000	9	...........	1467.43
	315	3.51287	1.85045E-001	-5.25473E-006	0.00000E+000	1.85048E-001	0.00000E+000	9	...........	1467.43
	316	3.52398	1.84038E-001	-5.35336E-006	0.00000E+000	1.84036E-001	0.00000E+000	9	...........	1467.43
	317	3.5351	1.83040E-001	-5.37321E-006	0.00000E+000	1.83037E-001	0.00000E+000	9	...........	1467.43
	318	3.54622	1.82043E-001	-5.46277E-006	0.00000E+000	1.82037E-001	0.00000E+000	9	...........	1467.43
	319	3.55733	1.81048E-001	-5.49520E-006	0.00000E+000	1.81037E-001	0.00000E+000	9	...........	1467.43
	320	3.56845	1.80038E-001	-5.59072E-006	0.00000E+000	1.80038E-001	0.00000E+000	9	...........	1467.43
	321	3.57957	1.79022E-001	-5.62971E-006	0.00000E+000	1.79038E-001	0.00000E+000	9	...........	1467.43
	322	3.59068	1.78023E-001	-5.69993E-006	0.00000E+000	1.78038E-001	0.00000E+000	9	...........	1467.43
	323	3.6018	1.77027E-001	-5.77926E-006	0.00000E+000	1.77039E-001	0.00000E+000	9	...........	1467.43
	324	3.61292	1.76043E-001	-5.82502E-006	0.00000E+000	1.76039E-001	0.00000E+000	9	...........	1467.43
	325	3.62403	1.75038E-001	-5.91959E-006	0.00000E+000	1.75039E-001	0.00000E+000	9	...........	1467.43
	326	3.63515	1.74038E-001	-5.94871E-006	0.00000E+000	1.74040E-001	0.00000E+000	9	...........	1467.43
	327	3.64627	1.73044E-001	-6.05155E-006	0.00000E+000	1.73040E-001	0.00000E+000	9	...........	1467.43
	328	3.65738	1.72042E-001	-6.08252E-006	0.00000E+000	1.72040E-001	0.00000E+000	9	...........	1467.43
	329	3.6685	1.71044E-001	-6.17639E-006	0.00000E+000	1.71041E-001	0.00000E+000	9	...........	1467.43
	330	3.67962	1.70054E-001	-6.22721E-006	0.00000E+000	1.70041E-001	0.00000E+000	9	...........	1467.43
	331	3.69073	1.69042E-001	-6.31096E-006	0.00000E+000	1.69029E-001	0.00000E+000	9	...........	1467.43
	332	3.70185	1.68040E-001	-6.37586E-006	0.00000E+000	1.68029E-001	0.00000E+000	9	...........	1467.43
	333	3.71297	1.67048E-001	-6.41916E-006	0.00000E+000	1.67030E-001	0.00000E+000	9	...........	1467.43
	334	3.72408	1.66014E-001	-6.51724E-006	0.00000E+000	1.66030E-001	0.00000E+000	9	...........	1467.43
	335	3.7352	1.65017E-001	-6.54691E-006	0.00000E+000	1.65030E-001	0.00000E+000	9	...........	1467.43
	336	3.74632	1.64029E-001	-6.65126E-006	0.00000E+000	1.64031E-001	0.00000E+000	9	...........	1467.43
	337	3.75743	1.63021E-001	-6.68699E-006	0.00000E+000	1.63031E-001	0.00000E+000	9	...........	1467.43
	338	3.76855	1.62024E-001	-6.78377E-006	0.00000E+000	1.62031E-001	0.00000E+000	9	...........	1467.43
	339	3.77967	1.61031E-001	-6.84261E-006	0.00000E+000	1.61032E-001	0.00000E+000	9	...........	1467.43
	340	3.79078	1.60032E-001	-6.90806E-006	0.00000E+000	1.60032E-001	0.00000E+000	9	...........	1467.43
	341	3.8019	1.59025E-001	-6.98624E-006	0.00000E+000	1.59032E-001	0.00000E+000	9	...........	1467.43
	342	3.81302	1.58038E-001	-7.04202E-006	0.00000E+000	1.58033E-001	0.00000E+000	9	...........	1467.43
	343	3.82413	1.57046E-001	-7.13955E-006	0.00000E+000	1.57033E-001	0.00000E+000	9	...........	1467.43
	344	3.83525	1.56041E-001	-7.17398E-006	0.00000E+000	1.56034E-001	0.00000E+000	9	...........	1467.43
	345	3.84637	1.55029E-001	-7.29116E-006	0.00000E+000	1.55021E-001	0.00000E+000	9	...........	1467.43
	346	3.85748	1.54015E-001	-7.32153E-006	0.00000E+000	1.54022E-001	0.00000E+000	9	...........	1467.43
	347	3.8686	1.53005E-001	-7.41771E-006	0.00000E+000	1.53022E-001	0.00000E+000	9	...........	1467.43
	348	3.87972	1.52014E-001	-7.48311E-006	0.00000E+000	1.52022E-001	0.00000E+000	9	...........	1467.43
	349	3.89083	1.51012E-001	-7.54470E-006	0.00000E+000	1.51023E-001	0.00000E+000	9	...........	1467.43
	350	3.90195	1.50017E-001	-7.63156E-006	0.00000E+000	1.50023E-001	0.00000E+000	9	...........	1467.43
	351	3.91307	1.49020E-001	-7.68624E-006	0.00000E+000	1.49023E-001	0.00000E+000	9	...........	1467.43
	352	3.92418	1.48022E-001	-7.78391E-006	0.00000E+000	1.48024E-001	0.00000E+000	9	...........	1467.43
	353	3.9353	1.47020E-001	-7.82677E-006	0.00000E+000	1.47024E-001	0.00000E+000	9	...........	1467.43
	354	3.94642	1.46020E-001	-7.93281E-006	0.00000E+000	1.46024E-001	0.00000E+000	9	...........	1467.43
	355	3.95753	1.45020E-001	-7.97872E-006	0.00000E+000	1.45025E-001	0.00000E+000	9	...........	1467.43
	356	3.96865	1.44024E-001	-8.07976E-006	0.00000E+000	1.44025E-001	0.00000E+000	9	...........	1467.43
	357	3.97977	1.43034E-001	-8.15002E-006	0.00000E+000	1.43026E-001	0.00000E+000	9	...........	1467.43
	358	3.99088	1.42037E-001	-8.21237E-006	0.00000E+000	1.42026E-001	0.00000E+000	9	...........	1467.43
	359	4.002	1.41049E-001	-8.30719E-006	0.00000E+000	1.41026E-001	0.00000E+000	9	...........	1467.43
	360	4.01312	1.40013E-001	-8.36433E-006	0.00000E+000	1.40014E-001	0.00000E+000	9	...........	1467.43
	361	4.02423	1.39015E-001	-8.47519E-006	0.00000E+000	1.39014E-001	0.00000E+000	9	...........	1467.43
	362	4.03535	1.38008E-001	-8.51232E-006	0.00000E+000	1.38015E-001	0.00000E+000	9	...........	1467.43
	363	4.04647	1.37009E-001	-8.62133E-006	0.00000E+000	1.37015E-001	0.00000E+000	9	...........	1467.43
	364	4.05758	1.36013E-001	-8.67591E-006	0.00000E+000	1.36015E-001	0.00000E+000	9	...........	1467.43
	365	4.0687	1.35019E-001	-8.76492E-006	0.00000E+000	1.35016E-001	0.00000E+000	9	...........	1467.43
	366	4.07982	1.34021E-001	-8.85077E-006	0.00000E+000	1.34016E-001	0.00000E+000	9	...........	1467.43
	367	4.09093	1.33027E-001	-8.91652E-006	0.00000E+000	1.33017E-001	0.00000E+000	9	...........	1467.43
	368	4.10205	1.32035E-001	-9.02297E-006	0.00000E+000	1.32017E-001	0.00000E+000	9	...........	1467.43
	369	4.11317	1.31034E-001	-9.06878E-006	0.00000E+000	1.31017E-001	0.00000E+000	9	...........	1467.43
	370	4.12428	1.30031E-001	-9.20024E-006	0.00000E+000	1.30018E-001	0.00000E+000	9	...........	1467.43
	371	4.1354	1.29032E-001	-9.24038E-006	0.00000E+000	1.29018E-001	0.00000E+000	9	...........	1467.43
	372	4.14652	1.28031E-001	-9.35801E-006	0.00000E+000	1.28018E-001	0.00000E+000	9	...........	1467.50
	373	4.15763	1.27015E-001	-9.41539E-006	0.00000E+000	1.27019E-001	0.00000E+000	9	...........	1467.52
	374	4.16875	1.26021E-001	-9.51593E-006	0.00000E+000	1.26019E-001	0.00000E+000	9	...........	1467.52
[...]
	1007	11.2056	2.93085E-001	4.64486E-007	0.00000E+000	2.93098E-001	0.00000E+000	9	...........	1467.52
	1008	11.2167	2.92097E-001	3.28617E-007	0.00000E+000	2.92099E-001	0.00000E+000	9	...........	1467.52
	1009	11.2278	2.91088E-001	2.63414E-007	0.00000E+000	2.91099E-001	0.00000E+000	9	...........	1467.52
	1010	11.2389	2.90103E-001	1.53707E-007	0.00000E+000	2.90099E-001	0.00000E+000	9	...........	1467.52
	1011	11.2501	2.89105E-001	7.96332E-008	0.00000E+000	2.89100E-001	0.00000E+000	9	...........	1467.52
	1012	11.2612	2.88101E-001	1.64349E-008	0.00000E+000	2.88100E-001	0.00000E+000	9	...........	1467.52
	1013	11.2723	2.87087E-001	-8.78597E-008	0.00000E+000	2.87088E-001	0.00000E+000	9	...........	1467.52
	1014	11.2834	2.86083E-001	-1.18381E-007	0.00000E+000	2.86088E-001	0.00000E+000	9	...........	1467.52
	1015	11.2945	2.85084E-001	-2.23227E-007	0.00000E+000	2.85088E-001	0.00000E+000	9	...........	1467.52
	1016	11.3056	2.84084E-001	-2.46833E-007	0.00000E+000	2.84089E-001	0.00000E+000	9	...........	1467.52
	1017	11.3168	2.83080E-001	-3.47268E-007	0.00000E+000	2.83089E-001	0.00000E+000	9	...........	1467.52
	1018	11.3279	2.82070E-001	-3.85959E-007	0.00000E+000	2.82090E-001	0.00000E+000	9	...........	1467.52
	1019	11.339	2.81067E-001	-4.57828E-007	0.00000E+000	2.81090E-001	0.00000E+000	9	...........	1467.52
	1020	11.3501	2.80072E-001	-5.20174E-007	0.00000E+000	2.80090E-001	0.00000E+000	9	...........	1467.52
	1021	11.3612	2.79066E-001	-5.61170E-007	0.00000E+000	2.79091E-001	0.00000E+000	9	...........	1467.52
	1022	11.3723	2.78067E-001	-6.44215E-007	0.00000E+000	2.78091E-001	0.00000E+000	9	...........	1467.52
	1023	11.3835	2.77075E-001	-6.67169E-007	0.00000E+000	2.77091E-001	0.00000E+000	9	...........	1467.52
	1024	11.3946	2.76079E-001	-7.66101E-007	0.00000E+000	2.76092E-001	0.00000E+000	9	...........	1467.52
	1025	11.4057	2.75074E-001	-7.79432E-007	0.00000E+000	2.75092E-001	0.00000E+000	9	...........	1467.52
	1026	11.4168	2.74076E-001	-8.67188E-007	0.00000E+000	2.74092E-001	0.00000E+000	9	...........	1467.52
	1027	11.4279	2.73064E-001	-9.14098E-007	0.00000E+000	2.73080E-001	0.00000E+000	9	...........	1467.52
	1028	11.439	2.72074E-001	-9.69228E-007	0.00000E+000	2.72081E-001	0.00000E+000	9	...........	1467.52
	1029	11.4502	2.71081E-001	-1.02406E-006	0.00000E+000	2.71081E-001	0.00000E+000	9	...........	1467.52
	1030	11.4613	2.70079E-001	-1.05889E-006	0.00000E+000	2.70081E-001	0.00000E+000	9	...........	1467.52
	1031	11.4724	2.69093E-001	-1.13171E-006	0.00000E+000	2.69082E-001	0.00000E+000	9	...........	1467.52
	1032	11.4835	2.68056E-001	-1.14925E-006	0.00000E+000	2.68082E-001	0.00000E+000	9	...........	1467.52
	1033	11.4946	2.67053E-001	-1.23014E-006	0.00000E+000	2.67082E-001	0.00000E+000	9	...........	1467.52
	1034	11.5057	2.66070E-001	-1.24342E-006	0.00000E+000	2.66083E-001	0.00000E+000	9	...........	1467.52
	1035	11.5169	2.65070E-001	-1.32401E-006	0.00000E+000	2.65083E-001	0.00000E+000	9	...........	1467.52
	1036	11.528	2.64076E-001	-1.33864E-006	0.00000E+000	2.64083E-001	0.00000E+000	9	...........	1467.52
	1037	11.5391	2.63077E-001	-1.40670E-006	0.00000E+000	2.63084E-001	0.00000E+000	9	...........	1467.52
	1038	11.5502	2.62076E-001	-1.44565E-006	0.00000E+000	2.62084E-001	0.00000E+000	9	...........	1467.52
	1039	11.5613	2.61080E-001	-1.48353E-006	0.00000E+000	2.61084E-001	0.00000E+000	9	...........	1467.52
	1040	11.5724	2.60080E-001	-1.55370E-006	0.00000E+000	2.60085E-001	0.00000E+000	9	...........	1467.52
	1041	11.5836	2.59089E-001	-1.56222E-006	0.00000E+000	2.59085E-001	0.00000E+000	9	...........	1467.52
	1042	11.5947	2.58078E-001	-1.66050E-006	0.00000E+000	2.58073E-001	0.00000E+000	9	...........	1467.52
	1043	11.6058	2.57081E-001	-1.65739E-006	0.00000E+000	2.57073E-001	0.00000E+000	9	...........	1467.52
	1044	11.6169	2.56070E-001	-1.72716E-006	0.00000E+000	2.56074E-001	0.00000E+000	9	...........	1467.52
	1045	11.628	2.55058E-001	-1.74565E-006	0.00000E+000	2.55074E-001	0.00000E+000	9	...........	1467.52
	1046	11.6391	2.54059E-001	-1.80288E-006	0.00000E+000	2.54074E-001	0.00000E+000	9	...........	1467.52
	1047	11.6503	2.53063E-001	-1.85751E-006	0.00000E+000	2.53075E-001	0.00000E+000	9	...........	1467.52
	1048	11.6614	2.52064E-001	-1.88212E-006	0.00000E+000	2.52075E-001	0.00000E+000	9	...........	1467.52
	1049	11.6725	2.51083E-001	-1.94472E-006	0.00000E+000	2.51075E-001	0.00000E+000	9	...........	1467.52
	1050	11.6836	2.50082E-001	-1.96025E-006	0.00000E+000	2.50076E-001	0.00000E+000	9	...........	1467.52
	1051	11.6947	2.49080E-001	-2.03703E-006	0.00000E+000	2.49076E-001	0.00000E+000	9	...........	1467.52
	1052	11.7058	2.48078E-001	-2.05237E-006	0.00000E+000	2.48076E-001	0.00000E+000	9	...........	1467.52
	1053	11.717	2.47087E-001	-2.12474E-006	0.00000E+000	2.47077E-001	0.00000E+000	9	...........	1467.52
	1054	11.7281	2.46076E-001	-2.14539E-006	0.00000E+000	2.46077E-001	0.00000E+000	9	...........	1467.52
	1055	11.7392	2.45088E-001	-2.19069E-006	0.00000E+000	2.45077E-001	0.00000E+000	9	...........	1467.52
	1056	11.7503	2.44089E-001	-2.24918E-006	0.00000E+000	2.44078E-001	0.00000E+000	9	...........	1467.52
	1057	11.7614	2.43077E-001	-2.28617E-006	0.00000E+000	2.43066E-001	0.00000E+000	9	...........	1467.52
	1058	11.7725	2.42048E-001	-2.34345E-006	0.00000E+000	2.42066E-001	0.00000E+000	9	...........	1467.52
	1059	11.7837	2.41057E-001	-2.35789E-006	0.00000E+000	2.41066E-001	0.00000E+000	9	...........	1467.52
	1060	11.7948	2.40065E-001	-2.43111E-006	0.00000E+000	2.40067E-001	0.00000E+000	9	...........	1467.52
	1061	11.8059	2.39058E-001	-2.43888E-006	0.00000E+000	2.39067E-001	0.00000E+000	9	...........	1467.52
	1062	11.817	2.38062E-001	-2.51786E-006	0.00000E+000	2.38067E-001	0.00000E+000	9	...........	1467.52
	1063	11.8281	2.37062E-001	-2.53615E-006	0.00000E+000	2.37068E-001	0.00000E+000	9	...........	1467.52
	1064	11.8392	2.36057E-001	-2.58702E-006	0.00000E+000	2.36068E-001	0.00000E+000	9	...........	1467.52
	1065	11.8504	2.35073E-001	-2.63664E-006	0.00000E+000	2.35068E-001	0.00000E+000	9	...........	1467.52
	1066	11.8615	2.34074E-001	-2.66977E-006	0.00000E+000	2.34069E-001	0.00000E+000	9	...........	1467.52
	1067	11.8726	2.33075E-001	-2.73773E-006	0.00000E+000	2.33069E-001	0.00000E+000	9	...........	1467.52
	1068	11.8837	2.32082E-001	-2.74940E-006	0.00000E+000	2.32069E-001	0.00000E+000	9	...........	1467.52
	1069	11.8948	2.31075E-001	-2.82844E-006	0.00000E+000	2.31070E-001	0.00000E+000	9	...........	1467.52
	1070	11.9059	2.30066E-001	-2.83951E-006	0.00000E+000	2.30070E-001	0.00000E+000	9	...........	1467.52
	1071	11.9171	2.29076E-001	-2.91133E-006	0.00000E+000	2.29071E-001	0.00000E+000	9	...........	1467.52
	1072	11.9282	2.28058E-001	-2.95268E-006	0.00000E+000	2.28058E-001	0.00000E+000	9	...........	1467.52
	1073	11.9393	2.27054E-001	-2.99052E-006	0.00000E+000	2.27059E-001	0.00000E+000	9	...........	1467.52
	1074	11.9504	2.26048E-001	-3.04951E-006	0.00000E+000	2.26059E-001	0.00000E+000	9	...........	1467.52
	1075	11.9615	2.25057E-001	-3.07547E-006	0.00000E+000	2.25059E-001	0.00000E+000	9	...........	1467.52
	1076	11.9727	2.24070E-001	-3.14238E-006	0.00000E+000	2.24060E-001	0.00000E+000	9	...........	1467.52
	1077	11.9838	2.23062E-001	-3.16007E-006	0.00000E+000	2.23060E-001	0.00000E+000	9	...........	1467.52
	1078	11.9949	2.22064E-001	-3.25033E-006	0.00000E+000	2.22060E-001	0.00000E+000	9	...........	1467.52
	1079	12.006	2.21070E-001	-3.25830E-006	0.00000E+000	2.21061E-001	0.00000E+000	9	...........	1467.52
	1080	12.0171	2.20062E-001	-3.33954E-006	0.00000E+000	2.20061E-001	0.00000E+000	9	...........	1467.52
	1081	12.0282	2.19058E-001	-3.36665E-006	0.00000E+000	2.19062E-001	0.00000E+000	9	...........	1467.52
	1082	12.0394	2.18070E-001	-3.41642E-006	0.00000E+000	2.18062E-001	0.00000E+000	9	...........	1467.52
	1083	12.0505	2.17053E-001	-3.46829E-006	0.00000E+000	2.17062E-001	0.00000E+000	9	...........	1467.52
	1084	12.0616	2.16063E-001	-3.50407E-006	0.00000E+000	2.16063E-001	0.00000E+000	9	...........	1467.52
	1085	12.0727	2.15054E-001	-3.57995E-006	0.00000E+000	2.15063E-001	0.00000E+000	9	...........	1467.52
	1086	12.0838	2.14037E-001	-3.60977E-006	0.00000E+000	2.14051E-001	0.00000E+000	9	...........	1467.52
	1087	12.0949	2.13039E-001	-3.68650E-006	0.00000E+000	2.13051E-001	0.00000E+000	9	...........	1467.52
	1088	12.1061	2.12052E-001	-3.70199E-006	0.00000E+000	2.12051E-001	0.00000E+000	9	...........	1467.52
	1089	12.1172	2.11046E-001	-3.77792E-006	0.00000E+000	2.11052E-001	0.00000E+000	9	...........	1467.52
	1090	12.1283	2.10048E-001	-3.81911E-006	0.00000E+000	2.10052E-001	0.00000E+000	9	...........	1467.52
	1091	12.1394	2.09049E-001	-3.86933E-006	0.00000E+000	2.09053E-001	0.00000E+000	9	...........	1467.63
	1092	12.1505	2.08056E-001	-3.93488E-006	0.00000E+000	2.08053E-001	0.00000E+000	9	...........	1467.70
	1093	12.1616	2.07047E-001	-3.96911E-006	0.00000E+000	2.07053E-001	0.00000E+000	9	...........	1467.70
	1094	12.1728	2.06057E-001	-4.04940E-006	0.00000E+000	2.06054E-001	0.00000E+000	9	...........	1467.70
	1095	12.1839	2.05065E-001	-4.06604E-006	0.00000E+000	2.05054E-001	0.00000E+000	9	...........	1467.70
	1096	12.195	2.04053E-001	-4.15460E-006	0.00000E+000	2.04054E-001	0.00000E+000	9	...........	1467.70
	1097	12.2061	2.03056E-001	-4.17675E-006	0.00000E+000	2.03055E-001	0.00000E+000	9	...........	1467.70
	1098	12.2172	2.02055E-001	-4.26045E-006	0.00000E+000	2.02055E-001	0.00000E+000	9	...........	1467.70
	1099	12.2283	2.01066E-001	-4.30601E-006	0.00000E+000	2.01055E-001	0.00000E+000	9	...........	1467.70
	1100	12.2395	2.00071E-001	-4.35587E-006	0.00000E+000	2.00056E-001	0.00000E+000	9	...........	1467.70
	1101	12.2506	1.99063E-001	-4.43556E-006	0.00000E+000	1.99043E-001	0.00000E+000	9	...........	1467.70
	1102	12.2617	1.98053E-001	-4.46297E-006	0.00000E+000	1.98044E-001	0.00000E+000	9	...........	1467.70
	1103	12.2728	1.97054E-001	-4.54587E-006	0.00000E+000	1.97044E-001	0.00000E+000	9	...........	1467.70
	1104	12.2839	1.96066E-001	-4.57193E-006	0.00000E+000	1.96045E-001	0.00000E+000	9	...........	1467.70
	1105	12.295	1.95063E-001	-4.66941E-006	0.00000E+000	1.95045E-001	0.00000E+000	9	...........	1467.70
	1106	12.3062	1.94069E-001	-4.69171E-006	0.00000E+000	1.94045E-001	0.00000E+000	9	...........	1467.70
	1107	12.3173	1.93070E-001	-4.77486E-006	0.00000E+000	1.93046E-001	0.00000E+000	9	...........	1467.70
	1108	12.3284	1.92067E-001	-4.81420E-006	0.00000E+000	1.92046E-001	0.00000E+000	9	...........	1467.70
	1109	12.3395	1.91034E-001	-4.87569E-006	0.00000E+000	1.91046E-001	0.00000E+000	9	...........	1467.70
	1110	12.3506	1.90036E-001	-4.95317E-006	0.00000E+000	1.90047E-001	0.00000E+000	9	...........	1467.70
	1111	12.3617	1.89045E-001	-4.98695E-006	0.00000E+000	1.89047E-001	0.00000E+000	9	...........	1467.70
	1112	12.3729	1.88045E-001	-5.08363E-006	0.00000E+000	1.88047E-001	0.00000E+000	9	...........	1467.70
	1113	12.384	1.87051E-001	-5.10112E-006	0.00000E+000	1.87048E-001	0.00000E+000	9	...........	1467.70
	1114	12.3951	1.86048E-001	-5.19970E-006	0.00000E+000	1.86048E-001	0.00000E+000	9	...........	1467.70
	1115	12.4062	1.85046E-001	-5.23133E-006	0.00000E+000	1.85048E-001	0.00000E+000	9	...........	1467.70
	1116	12.4173	1.84041E-001	-5.33567E-006	0.00000E+000	1.84036E-001	0.00000E+000	9	...........	1467.70
	1117	12.4284	1.83038E-001	-5.37516E-006	0.00000E+000	1.83037E-001	0.00000E+000	9	...........	1467.70
	1118	12.4396	1.82044E-001	-5.43661E-006	0.00000E+000	1.82037E-001	0.00000E+000	9	...........	1467.70
	1119	12.4507	1.81047E-001	-5.51088E-006	0.00000E+000	1.81037E-001	0.00000E+000	9	...........	1467.70
	1120	12.4618	1.80032E-001	-5.54892E-006	0.00000E+000	1.80038E-001	0.00000E+000	9	...........	1467.70
	1121	12.4729	1.79020E-001	-5.64510E-006	0.00000E+000	1.79038E-001	0.00000E+000	9	...........	1467.70
	1122	12.484	1.78026E-001	-5.67532E-006	0.00000E+000	1.78038E-001	0.00000E+000	9	...........	1467.70
	1123	12.4951	1.77033E-001	-5.77620E-006	0.00000E+000	1.77039E-001	0.00000E+000	9	...........	1467.70
	1124	12.5063	1.76049E-001	-5.80763E-006	0.00000E+000	1.76039E-001	0.00000E+000	9	...........	1467.70
	1125	12.5174	1.75044E-001	-5.90009E-006	0.00000E+000	1.75039E-001	0.00000E+000	9	...........	1467.70
	1126	12.5285	1.74045E-001	-5.95918E-006	0.00000E+000	1.74040E-001	0.00000E+000	9	...........	1467.70
	1127	12.5396	1.73054E-001	-6.01762E-006	0.00000E+000	1.73040E-001	0.00000E+000	9	...........	1467.70
	1128	12.5507	1.72049E-001	-6.08774E-006	0.00000E+000	1.72040E-001	0.00000E+000	9	...........	1467.70
	1129	12.5618	1.71054E-001	-6.14151E-006	0.00000E+000	1.71041E-001	0.00000E+000	9	...........	1467.70
	1130	12.573	1.70057E-001	-6.23794E-006	0.00000E+000	1.70041E-001	0.00000E+000	9	...........	1467.70
	1131	12.5841	1.69039E-001	-6.27853E-006	0.00000E+000	1.69029E-001	0.00000E+000	9	...........	1467.70
	1132	12.5952	1.68040E-001	-6.37035E-006	0.00000E+000	1.68029E-001	0.00000E+000	9	...........	1467.70
	1133	12.6063	1.67041E-001	-6.40844E-006	0.00000E+000	1.67030E-001	0.00000E+000	9	...........	1467.70
	1134	12.6174	1.66005E-001	-6.50015E-006	0.00000E+000	1.66030E-001	0.00000E+000	9	...........	1467.70
	1135	12.6285	1.65005E-001	-6.56040E-006	0.00000E+000	1.65030E-001	0.00000E+000	9	...........	1467.70
	1136	12.6397	1.64022E-001	-6.61768E-006	0.00000E+000	1.64031E-001	0.00000E+000	9	...........	1467.70
	1137	12.6508	1.63018E-001	-6.70453E-006	0.00000E+000	1.63031E-001	0.00000E+000	9	...........	1467.70
	1138	12.6619	1.62021E-001	-6.74869E-006	0.00000E+000	1.62031E-001	0.00000E+000	9	...........	1467.70
	1139	12.673	1.61022E-001	-6.85078E-006	0.00000E+000	1.61032E-001	0.00000E+000	9	...........	1467.70
	1140	12.6841	1.60025E-001	-6.88531E-006	0.00000E+000	1.60032E-001	0.00000E+000	9	...........	1467.70
	1141	12.6952	1.59019E-001	-6.98649E-006	0.00000E+000	1.59032E-001	0.00000E+000	9	...........	1467.70
	1142	12.7064	1.58033E-001	-7.02924E-006	0.00000E+000	1.58033E-001	0.00000E+000	9	...........	1467.70
	1143	12.7175	1.57038E-001	-7.12522E-006	0.00000E+000	1.57033E-001	0.00000E+000	9	...........	1467.70
	1144	12.7286	1.56039E-001	-7.18952E-006	0.00000E+000	1.56034E-001	0.00000E+000	9	...........	1467.70
	1145	12.7397	1.55023E-001	-7.26234E-006	0.00000E+000	1.55021E-001	0.00000E+000	9	...........	1467.70
	1146	12.7508	1.54012E-001	-7.33190E-006	0.00000E+000	1.54022E-001	0.00000E+000	9	...........	1467.70
	1147	12.7619	1.52999E-001	-7.38733E-006	0.00000E+000	1.53022E-001	0.00000E+000	9	...........	1467.70
	1148	12.7731	1.52005E-001	-7.48767E-006	0.00000E+000	1.52022E-001	0.00000E+000	9	...........	1467.70
	1149	12.7842	1.51007E-001	-7.52726E-006	0.00000E+000	1.51023E-001	0.00000E+000	9	...........	1467.70
	1150	12.7953	1.50020E-001	-7.63697E-006	0.00000E+000	1.50023E-001	0.00000E+000	9	...........	1467.70
	1151	12.8064	1.49017E-001	-7.67721E-006	0.00000E+000	1.49023E-001	0.00000E+000	9	...........	1467.70
	1152	12.8175	1.48029E-001	-7.76287E-006	0.00000E+000	1.48024E-001	0.00000E+000	9	...........	1467.70
	1153	12.8286	1.47026E-001	-7.83448E-006	0.00000E+000	1.47024E-001	0.00000E+000	9	...........	1467.70
	1154	12.8398	1.46019E-001	-7.89979E-006	0.00000E+000	1.46024E-001	0.00000E+000	9	...........	1467.70
	1155	12.8509	1.45017E-001	-7.99030E-006	0.00000E+000	1.45025E-001	0.00000E+000	9	...........	1467.70
	1156	12.862	1.44016E-001	-8.04468E-006	0.00000E+000	1.44025E-001	0.00000E+000	9	...........	1467.70
	1157	12.8731	1.43025E-001	-8.15273E-006	0.00000E+000	1.43026E-001	0.00000E+000	9	...........	1467.70
	1158	12.8842	1.42028E-001	-8.19047E-006	0.00000E+000	1.42026E-001	0.00000E+000	9	...........	1467.70
	1159	12.8953	1.41033E-001	-8.30303E-006	0.00000E+000	1.41026E-001	0.00000E+000	9	...........	1467.70
	1160	12.9065	1.39998E-001	-8.36909E-006	0.00000E+000	1.40014E-001	0.00000E+000	9	...........	1467.70
	1161	12.9176	1.39009E-001	-8.45348E-006	0.00000E+000	1.39014E-001	0.00000E+000	9	...........	1467.70
	1162	12.9287	1.38011E-001	-8.52155E-006	0.00000E+000	1.38015E-001	0.00000E+000	9	...........	1467.70
	1163	12.9398	1.37011E-001	-8.59858E-006	0.00000E+000	1.37015E-001	0.00000E+000	9	...........	1467.70
	1164	12.9509	1.36013E-001	-8.68728E-006	0.00000E+000	1.36015E-001	0.00000E+000	9	...........	1467.70
	1165	12.962	1.35015E-001	-8.74096E-006	0.00000E+000	1.35016E-001	0.00000E+000	9	...........	1467.70
	1166	12.9732	1.34016E-001	-8.86220E-006	0.00000E+000	1.34016E-001	0.00000E+000	9	...........	1467.70
	1167	12.9843	1.33023E-001	-8.90364E-006	0.00000E+000	1.33017E-001	0.00000E+000	9	...........	1467.70
	1168	12.9954	1.32026E-001	-9.02858E-006	0.00000E+000	1.32017E-001	0.00000E+000	9	...........	1467.70
	1169	13.0065	1.31025E-001	-9.08251E-006	0.00000E+000	1.31017E-001	0.00000E+000	9	...........	1467.70
	1170	13.0176	1.30023E-001	-9.18395E-006	0.00000E+000	1.30018E-001	0.00000E+000	9	...........	1467.70
	1171	13.0287	1.29031E-001	-9.25792E-006	0.00000E+000	1.29018E-001	0.00000E+000	9	...........	1467.70
	1172	13.0399	1.28032E-001	-9.33746E-006	0.00000E+000	1.28018E-001	0.00000E+000	9	...........	1467.70
	1173	13.051	1.27025E-001	-9.43138E-006	0.00000E+000	1.27019E-001	0.00000E+000	9	...........	1467.70
	1174	13.0621	1.26023E-001	-9.49267E-006	0.00000E+000	1.26019E-001	0.00000E+000	9	...........	1467.70
	1175	13.0732	1.25012E-001	-9.63220E-006	0.00000E+000	1.25007E-001	0.00000E+000	9	...........	1467.70
	1176	13.0843	1.24010E-001	-9.66603E-006	0.00000E+000	1.24007E-001	0.00000E+000	9	...........	1467.70
	1177	13.0954	1.23006E-001	-9.79313E-006	0.00000E+000	1.23008E-001	0.00000E+000	9	...........	1467.70
	1178	13.1066	1.22017E-001	-9.85142E-006	0.00000E+000	1.22008E-001	0.00000E+000	9	...........	1467.70
	1179	13.1177	1.21014E-001	-9.94734E-006	0.00000E+000	1.21008E-001	0.00000E+000	9	...........	1467.70
	1180	13.1288	1.20015E-001	-1.00442E-005	0.00000E+000	1.20009E-001	0.00000E+000	9	...........	1467.70
	1181	13.1399	1.19021E-001	-1.01240E-005	0.00000E+000	1.19009E-001	0.00000E+000	9	...........	1467.65
	1182	13.151	1.18012E-001	-1.02334E-005	0.00000E+000	1.18009E-001	0.00000E+000	9	...........	1467.61
	1183	13.1621	1.17013E-001	-1.02921E-005	0.00000E+000	1.17010E-001	0.00000E+000	9	...........	1467.61
	1184	13.1733	1.16026E-001	-1.04250E-005	0.00000E+000	1.16010E-001	0.00000E+000	9	...........	1467.61
	1185	13.1844	1.15020E-001	-1.04724E-005	0.00000E+000	1.15010E-001	0.00000E+000	9	...........	1467.61
	1186	13.1955	1.13998E-001	-1.06003E-005	0.00000E+000	1.14011E-001	0.00000E+000	9	...........	1467.61
	1187	13.2066	1.13007E-001	-1.06724E-005	0.00000E+000	1.13011E-001	0.00000E+000	9	...........	1467.61
	1188	13.2177	1.12012E-001	-1.07837E-005	0.00000E+000	1.12011E-001	0.00000E+000	9	...........	1467.61
	1189	13.2288	1.11012E-001	-1.08834E-005	0.00000E+000	1.11012E-001	0.00000E+000	9	...........	1467.61
	1190	13.24	1.10002E-001	-1.09759E-005	0.00000E+000	1.10000E-001	0.00000E+000	9	...........	1467.61
	1191	13.2511	1.09008E-001	-1.10852E-005	0.00000E+000	1.09000E-001	0.00000E+000	9	...........	1467.61
	1192	13.2622	1.08008E-001	-1.11494E-005	0.00000E+000	1.08000E-001	0.00000E+000	9	...........	1467.61
	1193	13.2733	1.07008E-001	-1.12915E-005	0.00000E+000	1.07001E-001	0.00000E+000	9	...........	1467.61
	1194	13.2844	1.06009E-001	-1.13473E-005	0.00000E+000	1.06001E-001	0.00000E+000	9	...........	1467.61
	1195	13.2955	1.05006E-001	-1.14854E-005	0.00000E+000	1.05001E-001	0.00000E+000	9	...........	1467.61
	1196	13.3067	1.04020E-001	-1.15586E-005	0.00000E+000	1.04002E-001	0.00000E+000	9	...........	1467.61
	1197	13.3178	1.03026E-001	-1.16631E-005	0.00000E+000	1.03002E-001	0.00000E+000	9	...........	1467.61
	1198	13.3289	1.02003E-001	-1.17797E-005	0.00000E+000	1.02002E-001	0.00000E+000	9	...........	1467.61
	1199	13.34	1.01010E-001	-1.18615E-005	0.00000E+000	1.01003E-001	0.00000E+000	9	...........	1467.61
	1200	13.3511	1.00007E-001	-1.19943E-005	0.00000E+000	1.00003E-001	0.00000E+000	9	...........	1467.61
CURVE4	TABLE
	Pt	T	Vf	Im	Vu	Sig	Ach	IERange	Over	Temp
	#	s	V vs. Ref.	A	V	V	V	#	bits	deg C
	1201	13.3622	9.99903E-002	-1.07323E-005	0.00000E+000	1.00003E-001	0.00000E+000	9	...........	1467.61