File: input/ECSA_test/CV_ECSA_#1_#10.DTA
EXPLAIN
TAG	CV
TITLE	LABEL	ECSA	Test Identifier
DATE	LABEL	2/13/2024	Date
TIME	LABEL	8:50:41	Time
NOTES	NOTES	1	Notes...

PSTAT	PSTAT	IFC1010-36068	Potentiostat
VINIT	POTEN	1.00000E-001	F	Initial E (V)
VLIMIT1	POTEN	3.00000E-001	F	Scan Limit 1 (V)
VLIMIT2	POTEN	1.00000E-001	F	Scan Limit 2 (V)
VFINAL	POTEN	1.00000E-001	F	Final E (V)
SCANRATE	QUANT	9.99548E+001	A Real Number
STEPSIZE	QUANT	1.00000E+000	Step Size (mV)
CYCLES	IQUANT	3	Cycles (#)
IMODE	SELECTOR	1	I/E Range Mode
IRANGE	QUANT	3.00000E-001	Max Current (mA)
AREA	QUANT	1.00000E+000	Sample Area (cm^2)
EQDELAY	QUANT	0.00000E+000	Equil. Time (s)
IRCOMP	SELECTOR	0	IRComp
PFCOR	QUANT	5.00000E+001	PF Corr. (ohm)
SAMPLINGMODE	SELECTOR	2	Sampling Mode
EOC	QUANT	0.3246219	Open Circuit (V)
ELECTRODETYPE	SELECTOR	0	Electrode Type
STRIPPING	TOGGLE	F	Used for Stripping
SEQUENCER	TOGGLE	TRUE	Run as Sequence
PSTATMODEL	IQUANT	64	Pstat Model
PSTATSECTION	LABEL	IFC1010-36068	Pstat Section
PSTATSERIALNO	LABEL	36068	Pstat Serial Number
CTRLMODE	IQUANT	1	Control Mode
ELECTROMETER	IQUANT	0	RE=0 or CS=1
IESTAB	IQUANT	2	I/E Stability
CASPEED	IQUANT	4	Control Amp Speed
CONVENTION	IQUANT	1	Current Convention
ICHRANGE	IQUANT	2	Ich Range
ICHRANGEMODE	TOGGLE	F	Ich Auto Range
ICHOFFSETENABLE	TOGGLE	F	Ich Offset Enable
ICHOFFSET	QUANT	0	Ich Offset (V)
ICHFILTER	IQUANT	3	Ich Filter
VCHRANGE	IQUANT	2	Vch Range
VCHRANGEMODE	TOGGLE	F	Vch Auto Range
VCHOFFSETENABLE	TOGGLE	F	Vch Offset Enable
VCHOFFSET	QUANT	0	Vch Offset (V)
VCHFILTER	IQUANT	3	Vch Filter
IERANGELOWERLIMIT	IQUANT	4	I/E Range Lower Limit
IERANGEMODE	TOGGLE	F	I/E AutoRange
IERANGE	IQUANT	9	I/E Range
ACHSELECT	IQUANT	0	Ach Select
ACHRANGE	IQUANT	2	Ach Range
ACHOFFSETENABLE	TOGGLE	F	Ach Offset Enable
ACHOFFSET	QUANT	0	Ach Offset (V)
ACHFILTER	IQUANT	1	Ach Filter
SENSECABLEID	IQUANT	13	Sense Cable ID
PWRCABLEID	IQUANT	13	Power Cable ID
DCCALDATE	LABEL	8/11/2023	DC Calibration Date
ACCALDATE	LABEL	6/2/2023	AC Calibration Date
FRAMEWORKVERSION	LABEL	7.10.3	Framework Version
INSTRUMENTVERSION	LABEL	4.91	Instrument Version
COMMVERSION	LABEL	3.10	Communications Version
CPUPLDVERSION	LABEL	2.22	CPU PLD Version
CTRLPLDVERSION	LABEL	0.00	CTRL PLD Version
PSTATPLDVERSION	LABEL	0.00	PSTAT PLD Version
CURVE1	TABLE
	Pt	T	Vf	Im	Vu	Sig	Ach	IERange	Over	Temp
	#	s	V vs. Ref.	A	V	V	V	#	bits	deg C
	0	0.01	9.99883E-002	-1.06016E-005	0.00000E+000	1.00003E-001	0.00000E+000	9	...........	1467.61
	1	0.02	1.00964E-001	-9.02815E-006	0.00000E+000	1.01003E-001	0.00000E+000	9	...........	1467.61
	2	0.03	1.01955E-001	-8.69776E-006	0.00000E+000	1.02002E-001	0.00000E+000	9	...........	1467.61
	3	0.04	1.02975E-001	-8.44680E-006	0.00000E+000	1.03002E-001	0.00000E+000	9	...........	1467.61
	4	0.05	1.03976E-001	-8.22353E-006	0.00000E+000	1.04002E-001	0.00000E+000	9	...........	1467.61
	5	0.06	1.04959E-001	-8.04129E-006	0.00000E+000	1.05001E-001	0.00000E+000	9	...........	1467.61
	6	0.07	1.05961E-001	-7.84098E-006	0.00000E+000	1.06001E-001	0.00000E+000	9	...........	1467.61
	7	0.08	1.06958E-001	-7.67975E-006	0.00000E+000	1.07001E-001	0.00000E+000	9	...........	1467.61
	8	0.09	1.07959E-001	-7.50865E-006	0.00000E+000	1.08000E-001	0.00000E+000	9	...........	1467.61
	9	0.1	1.08969E-001	-7.36135E-006	0.00000E+000	1.09000E-001	0.00000E+000	9	...........	1467.61
	10	0.11	1.09959E-001	-7.19905E-006	0.00000E+000	1.10000E-001	0.00000E+000	9	...........	1467.61
	11	0.12	1.10953E-001	-7.05521E-006	0.00000E+000	1.10999E-001	0.00000E+000	9	...........	1467.61
	12	0.13	1.11954E-001	-6.90021E-006	0.00000E+000	1.11999E-001	0.00000E+000	9	...........	1467.61
	13	0.14	1.12945E-001	-6.76473E-006	0.00000E+000	1.12999E-001	0.00000E+000	9	...........	1467.61
	14	0.15	1.13946E-001	-6.62389E-006	0.00000E+000	1.13998E-001	0.00000E+000	9	...........	1467.61
	15	0.16	1.14965E-001	-6.49270E-006	0.00000E+000	1.14998E-001	0.00000E+000	9	...........	1467.61
	16	0.17	1.15971E-001	-6.35793E-006	0.00000E+000	1.15997E-001	0.00000E+000	9	...........	1467.61
	17	0.18	1.16969E-001	-6.23131E-006	0.00000E+000	1.16997E-001	0.00000E+000	9	...........	1467.61
	18	0.19	1.17965E-001	-6.09738E-006	0.00000E+000	1.17997E-001	0.00000E+000	9	...........	1467.61
	19	0.2	1.18970E-001	-5.97165E-006	0.00000E+000	1.18996E-001	0.00000E+000	9	...........	1467.61
	20	0.21	1.19975E-001	-5.84597E-006	0.00000E+000	1.19996E-001	0.00000E+000	9	...........	1467.61
	21	0.22	1.20970E-001	-5.72771E-006	0.00000E+000	1.20996E-001	0.00000E+000	9	...........	1467.61
	22	0.23	1.21976E-001	-5.60604E-006	0.00000E+000	1.21995E-001	0.00000E+000	9	...........	1467.61
	23	0.24	1.22969E-001	-5.49073E-006	0.00000E+000	1.22995E-001	0.00000E+000	9	...........	1467.61
	24	0.25	1.23966E-001	-5.37341E-006	0.00000E+000	1.23995E-001	0.00000E+000	9	...........	1467.61
	25	0.26	1.24969E-001	-5.26067E-006	0.00000E+000	1.24994E-001	0.00000E+000	9	...........	1467.61
	26	0.27	1.25964E-001	-5.15182E-006	0.00000E+000	1.25994E-001	0.00000E+000	9	...........	1467.61
	27	0.28	1.26968E-001	-5.04041E-006	0.00000E+000	1.26994E-001	0.00000E+000	9	...........	1467.61
	28	0.29	1.27974E-001	-4.93680E-006	0.00000E+000	1.27993E-001	0.00000E+000	9	...........	1467.61
	29	0.3	1.28973E-001	-4.82907E-006	0.00000E+000	1.28993E-001	0.00000E+000	9	...........	1467.61
	30	0.31	1.29975E-001	-4.72775E-006	0.00000E+000	1.29993E-001	0.00000E+000	9	...........	1467.61
	31	0.32	1.30971E-001	-4.63702E-006	0.00000E+000	1.30980E-001	0.00000E+000	9	...........	1467.61
	32	0.33	1.31967E-001	-4.51613E-006	0.00000E+000	1.31979E-001	0.00000E+000	9	...........	1467.61
	33	0.34	1.32961E-001	-4.41526E-006	0.00000E+000	1.32979E-001	0.00000E+000	9	...........	1467.61
	34	0.35	1.33954E-001	-4.32007E-006	0.00000E+000	1.33979E-001	0.00000E+000	9	...........	1467.61
	35	0.36	1.34951E-001	-4.21997E-006	0.00000E+000	1.34978E-001	0.00000E+000	9	...........	1467.61
	36	0.37	1.35951E-001	-4.13654E-006	0.00000E+000	1.35978E-001	0.00000E+000	9	...........	1467.61
	37	0.38	1.36945E-001	-4.03048E-006	0.00000E+000	1.36978E-001	0.00000E+000	9	...........	1467.61
	38	0.39	1.37947E-001	-3.94231E-006	0.00000E+000	1.37977E-001	0.00000E+000	9	...........	1467.61
	39	0.4	1.38941E-001	-3.84483E-006	0.00000E+000	1.38977E-001	0.00000E+000	9	...........	1467.61
	40	0.41	1.39940E-001	-3.75912E-006	0.00000E+000	1.39977E-001	0.00000E+000	9	...........	1467.61
	41	0.42	1.40960E-001	-3.66638E-006	0.00000E+000	1.40976E-001	0.00000E+000	9	...........	1467.61
	42	0.43	1.41953E-001	-3.57854E-006	0.00000E+000	1.41976E-001	0.00000E+000	9	...........	1467.61
	43	0.44	1.42948E-001	-3.48285E-006	0.00000E+000	1.42976E-001	0.00000E+000	9	...........	1467.61
	44	0.45	1.43948E-001	-3.40989E-006	0.00000E+000	1.43975E-001	0.00000E+000	9	...........	1467.61
	45	0.46	1.44946E-001	-3.31125E-006	0.00000E+000	1.44975E-001	0.00000E+000	9	...........	1467.61
	46	0.47	1.45946E-001	-3.23902E-006	0.00000E+000	1.45975E-001	0.00000E+000	9	...........	1467.61
	47	0.48	1.46949E-001	-3.14065E-006	0.00000E+000	1.46974E-001	0.00000E+000	9	...........	1467.61
	48	0.49	1.47944E-001	-3.07762E-006	0.00000E+000	1.47974E-001	0.00000E+000	9	...........	1467.61
	49	0.5	1.48937E-001	-2.98170E-006	0.00000E+000	1.48973E-001	0.00000E+000	9	...........	1467.61
	50	0.51	1.49929E-001	-2.91376E-006	0.00000E+000	1.49973E-001	0.00000E+000	9	...........	1467.61
	51	0.52	1.50923E-001	-2.81768E-006	0.00000E+000	1.50973E-001	0.00000E+000	9	...........	1467.61
	52	0.53	1.51918E-001	-2.75470E-006	0.00000E+000	1.51972E-001	0.00000E+000	9	...........	1467.61
	53	0.54	1.52917E-001	-2.65929E-006	0.00000E+000	1.52972E-001	0.00000E+000	9	...........	1467.61
	54	0.55	1.53923E-001	-2.59999E-006	0.00000E+000	1.53972E-001	0.00000E+000	9	...........	1467.61
	55	0.56	1.54930E-001	-2.50925E-006	0.00000E+000	1.54971E-001	0.00000E+000	9	...........	1467.61
	56	0.57	1.55938E-001	-2.44784E-006	0.00000E+000	1.55971E-001	0.00000E+000	9	...........	1467.61
	57	0.58	1.56944E-001	-2.36608E-006	0.00000E+000	1.56971E-001	0.00000E+000	9	...........	1467.61
	58	0.59	1.57941E-001	-2.30661E-006	0.00000E+000	1.57970E-001	0.00000E+000	9	...........	1467.61
	59	0.6	1.58923E-001	-2.21443E-006	0.00000E+000	1.58970E-001	0.00000E+000	9	...........	1467.61
	60	0.61	1.59930E-001	-2.16377E-006	0.00000E+000	1.59970E-001	0.00000E+000	9	...........	1467.61
	61	0.62	1.60936E-001	-2.07426E-006	0.00000E+000	1.60969E-001	0.00000E+000	9	...........	1467.61
	62	0.63	1.61930E-001	-2.01997E-006	0.00000E+000	1.61969E-001	0.00000E+000	9	...........	1467.61
	63	0.64	1.62923E-001	-1.93760E-006	0.00000E+000	1.62969E-001	0.00000E+000	9	...........	1467.61
	64	0.65	1.63935E-001	-1.87947E-006	0.00000E+000	1.63968E-001	0.00000E+000	9	...........	1467.61
	65	0.66	1.64920E-001	-1.80150E-006	0.00000E+000	1.64968E-001	0.00000E+000	9	...........	1467.61
	66	0.67	1.65913E-001	-1.75023E-006	0.00000E+000	1.65968E-001	0.00000E+000	9	...........	1467.61
	67	0.68	1.66950E-001	-1.67588E-006	0.00000E+000	1.66967E-001	0.00000E+000	9	...........	1467.61
	68	0.69	1.67949E-001	-1.61664E-006	0.00000E+000	1.67967E-001	0.00000E+000	9	...........	1467.61
	69	0.7	1.68944E-001	-1.53465E-006	0.00000E+000	1.68966E-001	0.00000E+000	9	...........	1467.61
	70	0.71	1.69946E-001	-1.48745E-006	0.00000E+000	1.69966E-001	0.00000E+000	9	...........	1467.61
	71	0.72	1.70935E-001	-1.40931E-006	0.00000E+000	1.70966E-001	0.00000E+000	9	...........	1467.61
	72	0.73	1.71935E-001	-1.36656E-006	0.00000E+000	1.71965E-001	0.00000E+000	9	...........	1467.61
	73	0.74	1.72938E-001	-1.27851E-006	0.00000E+000	1.72965E-001	0.00000E+000	9	...........	1467.61
	74	0.75	1.73932E-001	-1.23754E-006	0.00000E+000	1.73965E-001	0.00000E+000	9	...........	1467.61
	75	0.76	1.74931E-001	-1.15913E-006	0.00000E+000	1.74964E-001	0.00000E+000	9	...........	1467.61
	76	0.77	1.75936E-001	-1.10752E-006	0.00000E+000	1.75964E-001	0.00000E+000	9	...........	1467.61
	77	0.78	1.76924E-001	-1.03256E-006	0.00000E+000	1.76964E-001	0.00000E+000	9	...........	1467.61
	78	0.79	1.77916E-001	-9.87804E-007	0.00000E+000	1.77963E-001	0.00000E+000	9	...........	1467.61
	79	0.8	1.78915E-001	-9.06992E-007	0.00000E+000	1.78963E-001	0.00000E+000	9	...........	1467.61
	80	0.81	1.79925E-001	-8.66585E-007	0.00000E+000	1.79963E-001	0.00000E+000	9	...........	1467.61
	81	0.82	1.80936E-001	-7.84157E-007	0.00000E+000	1.80962E-001	0.00000E+000	9	...........	1467.61
	82	0.83	1.81938E-001	-7.39515E-007	0.00000E+000	1.81962E-001	0.00000E+000	9	...........	1467.61
	83	0.84	1.82928E-001	-6.64777E-007	0.00000E+000	1.82962E-001	0.00000E+000	9	...........	1467.61
	84	0.85	1.83923E-001	-6.28384E-007	0.00000E+000	1.83961E-001	0.00000E+000	9	...........	1467.61
	85	0.86	1.84924E-001	-5.55485E-007	0.00000E+000	1.84961E-001	0.00000E+000	9	...........	1467.61
	86	0.87	1.85925E-001	-5.18646E-007	0.00000E+000	1.85961E-001	0.00000E+000	9	...........	1467.61
	87	0.88	1.86922E-001	-4.37499E-007	0.00000E+000	1.86960E-001	0.00000E+000	9	...........	1467.61
	88	0.89	1.87918E-001	-3.97260E-007	0.00000E+000	1.87960E-001	0.00000E+000	9	...........	1467.61
	89	0.9	1.88908E-001	-3.26479E-007	0.00000E+000	1.88960E-001	0.00000E+000	9	...........	1467.61
	90	0.91	1.89909E-001	-2.92036E-007	0.00000E+000	1.89959E-001	0.00000E+000	9	...........	1467.61
	91	0.92	1.90905E-001	-2.15125E-007	0.00000E+000	1.90959E-001	0.00000E+000	9	...........	1467.61
	92	0.93	1.91941E-001	-1.80961E-007	0.00000E+000	1.91958E-001	0.00000E+000	9	...........	1467.61
	93	0.94	1.92935E-001	-1.11239E-007	0.00000E+000	1.92958E-001	0.00000E+000	9	...........	1467.61
	94	0.95	1.93928E-001	-6.98855E-008	0.00000E+000	1.93958E-001	0.00000E+000	9	...........	1467.61
	95	0.96	1.94914E-001	7.27835E-010	0.00000E+000	1.94957E-001	0.00000E+000	9	...........	1467.61
	96	0.97	1.95914E-001	3.50035E-008	0.00000E+000	1.95957E-001	0.00000E+000	9	...........	1467.61
	97	0.98	1.96917E-001	1.05673E-007	0.00000E+000	1.96957E-001	0.00000E+000	9	...........	1467.61
	98	0.99	1.97912E-001	1.40115E-007	0.00000E+000	1.97956E-001	0.00000E+000	9	...........	1467.61
	99	1	1.98924E-001	2.08945E-007	0.00000E+000	1.98956E-001	0.00000E+000	9	...........	1467.61
	100	1.01	1.99921E-001	2.35586E-007	0.00000E+000	1.99956E-001	0.00000E+000	9	...........	1467.61
	101	1.02	2.00910E-001	3.09822E-007	0.00000E+000	2.00955E-001	0.00000E+000	9	...........	1467.61
	102	1.03	2.01911E-001	3.50618E-007	0.00000E+000	2.01955E-001	0.00000E+000	9	...........	1467.61
	103	1.04	2.02914E-001	4.07967E-007	0.00000E+000	2.02955E-001	0.00000E+000	9	...........	1467.61
	104	1.05	2.03903E-001	4.51717E-007	0.00000E+000	2.03954E-001	0.00000E+000	9	...........	1467.61
	105	1.06	2.04925E-001	5.09847E-007	0.00000E+000	2.04954E-001	0.00000E+000	9	...........	1467.61
	106	1.07	2.05927E-001	5.48135E-007	0.00000E+000	2.05954E-001	0.00000E+000	9	...........	1467.61
	107	1.08	2.06913E-001	6.07267E-007	0.00000E+000	2.06953E-001	0.00000E+000	9	...........	1467.61
	108	1.09	2.07918E-001	6.43327E-007	0.00000E+000	2.07953E-001	0.00000E+000	9	...........	1467.61
	109	1.1	2.08913E-001	7.09704E-007	0.00000E+000	2.08953E-001	0.00000E+000	9	...........	1467.61
	110	1.11	2.09910E-001	7.38295E-007	0.00000E+000	2.09952E-001	0.00000E+000	9	...........	1467.61
	111	1.12	2.10909E-001	8.03670E-007	0.00000E+000	2.10952E-001	0.00000E+000	9	...........	1467.61
	112	1.13	2.11913E-001	8.26687E-007	0.00000E+000	2.11951E-001	0.00000E+000	9	...........	1467.61
	113	1.14	2.12904E-001	8.95573E-007	0.00000E+000	2.12951E-001	0.00000E+000	9	...........	1467.61
	114	1.15	2.13896E-001	9.29068E-007	0.00000E+000	2.13951E-001	0.00000E+000	9	...........	1467.61
	115	1.16	2.14908E-001	9.82850E-007	0.00000E+000	2.14950E-001	0.00000E+000	9	...........	1467.61
	116	1.17	2.15891E-001	1.01902E-006	0.00000E+000	2.15950E-001	0.00000E+000	9	...........	1467.61
	117	1.18	2.16901E-001	1.08044E-006	0.00000E+000	2.16950E-001	0.00000E+000	9	...........	1467.61
	118	1.19	2.17936E-001	1.10385E-006	0.00000E+000	2.17949E-001	0.00000E+000	9	...........	1467.61
	119	1.2	2.18913E-001	1.17145E-006	0.00000E+000	2.18949E-001	0.00000E+000	9	...........	1467.61
	120	1.21	2.19918E-001	1.19564E-006	0.00000E+000	2.19949E-001	0.00000E+000	9	...........	1467.61
	121	1.22	2.20920E-001	1.26458E-006	0.00000E+000	2.20948E-001	0.00000E+000	9	...........	1467.61
	122	1.23	2.21911E-001	1.29016E-006	0.00000E+000	2.21948E-001	0.00000E+000	9	...........	1467.61
	123	1.24	2.22913E-001	1.35097E-006	0.00000E+000	2.22948E-001	0.00000E+000	9	...........	1467.61
	124	1.25	2.23916E-001	1.37538E-006	0.00000E+000	2.23947E-001	0.00000E+000	9	...........	1467.61
	125	1.26	2.24903E-001	1.43774E-006	0.00000E+000	2.24947E-001	0.00000E+000	9	...........	1467.61
	126	1.27	2.25901E-001	1.45569E-006	0.00000E+000	2.25947E-001	0.00000E+000	9	...........	1467.61
	127	1.28	2.26897E-001	1.51755E-006	0.00000E+000	2.26946E-001	0.00000E+000	9	...........	1467.61
	128	1.29	2.27900E-001	1.53522E-006	0.00000E+000	2.27946E-001	0.00000E+000	9	...........	1467.61
	129	1.3	2.28902E-001	1.59847E-006	0.00000E+000	2.28946E-001	0.00000E+000	9	...........	1467.61
	130	1.31	2.29895E-001	1.61609E-006	0.00000E+000	2.29945E-001	0.00000E+000	9	...........	1467.61
	131	1.32	2.30901E-001	1.67533E-006	0.00000E+000	2.30945E-001	0.00000E+000	9	...........	1467.61
	132	1.33	2.31910E-001	1.69523E-006	0.00000E+000	2.31945E-001	0.00000E+000	9	...........	1467.61
	133	1.34	2.32901E-001	1.75770E-006	0.00000E+000	2.32944E-001	0.00000E+000	9	...........	1467.61
	134	1.35	2.33904E-001	1.77476E-006	0.00000E+000	2.33944E-001	0.00000E+000	9	...........	1467.61
	135	1.36	2.34888E-001	1.83640E-006	0.00000E+000	2.34943E-001	0.00000E+000	9	...........	1467.61
	136	1.37	2.35887E-001	1.85758E-006	0.00000E+000	2.35943E-001	0.00000E+000	9	...........	1467.61
	137	1.38	2.36892E-001	1.91320E-006	0.00000E+000	2.36943E-001	0.00000E+000	9	...........	1467.61
	138	1.39	2.37884E-001	1.92340E-006	0.00000E+000	2.37942E-001	0.00000E+000	9	...........	1467.61
	139	1.4	2.38882E-001	1.98977E-006	0.00000E+000	2.38942E-001	0.00000E+000	9	...........	1467.61
	140	1.41	2.39891E-001	2.00666E-006	0.00000E+000	2.39942E-001	0.00000E+000	9	...........	1467.61
	141	1.42	2.40874E-001	2.06981E-006	0.00000E+000	2.40941E-001	0.00000E+000	9	...........	1467.61
	142	1.43	2.41884E-001	2.07365E-006	0.00000E+000	2.41941E-001	0.00000E+000	9	...........	1467.61
	143	1.44	2.42878E-001	2.14204E-006	0.00000E+000	2.42941E-001	0.00000E+000	9	...........	1467.61
	144	1.45	2.43900E-001	2.14388E-006	0.00000E+000	2.43940E-001	0.00000E+000	9	...........	1467.61
	145	1.46	2.44900E-001	2.20892E-006	0.00000E+000	2.44940E-001	0.00000E+000	9	...........	1467.61
	146	1.47	2.45892E-001	2.21633E-006	0.00000E+000	2.45940E-001	0.00000E+000	9	...........	1467.61
	147	1.48	2.46891E-001	2.28705E-006	0.00000E+000	2.46939E-001	0.00000E+000	9	...........	1467.61
	148	1.49	2.47889E-001	2.29045E-006	0.00000E+000	2.47939E-001	0.00000E+000	9	...........	1467.61
	149	1.5	2.48893E-001	2.35432E-006	0.00000E+000	2.48939E-001	0.00000E+000	9	...........	1467.61
	150	1.51	2.49896E-001	2.35895E-006	0.00000E+000	2.49938E-001	0.00000E+000	9	...........	1467.61
	151	1.52	2.50891E-001	2.42466E-006	0.00000E+000	2.50938E-001	0.00000E+000	9	...........	1467.61
	152	1.53	2.51890E-001	2.42588E-006	0.00000E+000	2.51938E-001	0.00000E+000	9	...........	1467.61
	153	1.54	2.52871E-001	2.47615E-006	0.00000E+000	2.52925E-001	0.00000E+000	9	...........	1467.61
	154	1.55	2.53863E-001	2.49861E-006	0.00000E+000	2.53924E-001	0.00000E+000	9	...........	1467.61
	155	1.56	2.54859E-001	2.56973E-006	0.00000E+000	2.54924E-001	0.00000E+000	9	...........	1467.61
	156	1.57	2.55879E-001	2.56516E-006	0.00000E+000	2.55924E-001	0.00000E+000	9	...........	1467.61
	157	1.58	2.56885E-001	2.63176E-006	0.00000E+000	2.56923E-001	0.00000E+000	9	...........	1467.61
	158	1.59	2.57885E-001	2.63499E-006	0.00000E+000	2.57923E-001	0.00000E+000	9	...........	1467.61
	159	1.6	2.58883E-001	2.70065E-006	0.00000E+000	2.58923E-001	0.00000E+000	9	...........	1467.61
	160	1.61	2.59881E-001	2.70382E-006	0.00000E+000	2.59922E-001	0.00000E+000	9	...........	1467.61
	161	1.62	2.60875E-001	2.76513E-006	0.00000E+000	2.60922E-001	0.00000E+000	9	...........	1467.61
	162	1.63	2.61868E-001	2.76691E-006	0.00000E+000	2.61922E-001	0.00000E+000	9	...........	1467.61
	163	1.64	2.62878E-001	2.83775E-006	0.00000E+000	2.62921E-001	0.00000E+000	9	...........	1467.61
	164	1.65	2.63875E-001	2.83463E-006	0.00000E+000	2.63921E-001	0.00000E+000	9	...........	1467.61
	165	1.66	2.64874E-001	2.90429E-006	0.00000E+000	2.64921E-001	0.00000E+000	9	...........	1467.61
	166	1.67	2.65875E-001	2.90730E-006	0.00000E+000	2.65920E-001	0.00000E+000	9	...........	1467.61
	167	1.68	2.66865E-001	2.96939E-006	0.00000E+000	2.66920E-001	0.00000E+000	9	...........	1467.61
	168	1.69	2.67860E-001	2.98042E-006	0.00000E+000	2.67919E-001	0.00000E+000	9	...........	1467.61
	169	1.7	2.68902E-001	3.04362E-006	0.00000E+000	2.68919E-001	0.00000E+000	9	...........	1467.61
	170	1.71	2.69899E-001	3.04580E-006	0.00000E+000	2.69919E-001	0.00000E+000	9	...........	1467.61
	171	1.72	2.70894E-001	3.10922E-006	0.00000E+000	2.70918E-001	0.00000E+000	9	...........	1467.61
	172	1.73	2.71884E-001	3.11429E-006	0.00000E+000	2.71918E-001	0.00000E+000	9	...........	1467.61
	173	1.74	2.72888E-001	3.16969E-006	0.00000E+000	2.72918E-001	0.00000E+000	9	...........	1467.61
	174	1.75	2.73880E-001	3.17504E-006	0.00000E+000	2.73917E-001	0.00000E+000	9	...........	1467.61
	175	1.76	2.74873E-001	3.23947E-006	0.00000E+000	2.74917E-001	0.00000E+000	9	...........	1467.61
	176	1.77	2.75881E-001	3.24014E-006	0.00000E+000	2.75917E-001	0.00000E+000	9	...........	1467.61
	177	1.78	2.76874E-001	3.30780E-006	0.00000E+000	2.76916E-001	0.00000E+000	9	...........	1467.61
	178	1.79	2.77871E-001	3.30819E-006	0.00000E+000	2.77916E-001	0.00000E+000	9	...........	1467.61
	179	1.8	2.78868E-001	3.37245E-006	0.00000E+000	2.78916E-001	0.00000E+000	9	...........	1467.61
	180	1.81	2.79862E-001	3.37440E-006	0.00000E+000	2.79915E-001	0.00000E+000	9	...........	1467.61
	181	1.82	2.80854E-001	3.44150E-006	0.00000E+000	2.80915E-001	0.00000E+000	9	...........	1467.61
	182	1.83	2.81871E-001	3.44106E-006	0.00000E+000	2.81915E-001	0.00000E+000	9	...........	1467.61
	183	1.84	2.82875E-001	3.50671E-006	0.00000E+000	2.82914E-001	0.00000E+000	9	...........	1467.61
	184	1.85	2.83888E-001	3.50571E-006	0.00000E+000	2.83914E-001	0.00000E+000	9	...........	1467.61
	185	1.86	2.84877E-001	3.58278E-006	0.00000E+000	2.84914E-001	0.00000E+000	9	...........	1467.61
	186	1.87	2.85870E-001	3.57264E-006	0.00000E+000	2.85913E-001	0.00000E+000	9	...........	1467.61
	187	1.88	2.86861E-001	3.64738E-006	0.00000E+000	2.86913E-001	0.00000E+000	9	...........	1467.61
	188	1.89	2.87868E-001	3.64286E-006	0.00000E+000	2.87912E-001	0.00000E+000	9	...........	1467.61
	189	1.9	2.88875E-001	3.71543E-006	0.00000E+000	2.88912E-001	0.00000E+000	9	...........	1467.61
	190	1.91	2.89865E-001	3.71247E-006	0.00000E+000	2.89912E-001	0.00000E+000	9	...........	1467.61
	191	1.92	2.90851E-001	3.78331E-006	0.00000E+000	2.90911E-001	0.00000E+000	9	...........	1467.61
	192	1.93	2.91864E-001	3.78398E-006	0.00000E+000	2.91911E-001	0.00000E+000	9	...........	1467.61
	193	1.94	2.92854E-001	3.84489E-006	0.00000E+000	2.92911E-001	0.00000E+000	9	...........	1467.61
	194	1.95	2.93855E-001	3.85214E-006	0.00000E+000	2.93910E-001	0.00000E+000	9	...........	1467.61
	195	1.96	2.94884E-001	3.92309E-006	0.00000E+000	2.94910E-001	0.00000E+000	9	...........	1467.61
	196	1.97	2.95881E-001	3.91356E-006	0.00000E+000	2.95910E-001	0.00000E+000	9	...........	1467.61
	197	1.98	2.96872E-001	3.99671E-006	0.00000E+000	2.96909E-001	0.00000E+000	9	...........	1467.61
	198	1.99	2.97869E-001	3.99064E-006	0.00000E+000	2.97909E-001	0.00000E+000	9	...........	1467.61
	199	2	2.98867E-001	4.06465E-006	0.00000E+000	2.98909E-001	0.00000E+000	9	...........	1467.61
	200	2.01	2.99868E-001	4.06275E-006	0.00000E+000	2.99908E-001	0.00000E+000	9	...........	1467.61
	201	2.02	2.98913E-001	1.46901E-006	0.00000E+000	2.98909E-001	0.00000E+000	9	...........	1467.61
	202	2.03	2.97922E-001	1.12491E-006	0.00000E+000	2.97909E-001	0.00000E+000	9	...........	1467.61
	203	2.04	2.96912E-001	9.61282E-007	0.00000E+000	2.96909E-001	0.00000E+000	9	...........	1467.61
	204	2.05	2.95932E-001	7.57467E-007	0.00000E+000	2.95910E-001	0.00000E+000	9	...........	1467.61
	205	2.06	2.94935E-001	6.60046E-007	0.00000E+000	2.94910E-001	0.00000E+000	9	...........	1467.61
	206	2.07	2.93903E-001	4.94353E-007	0.00000E+000	2.93910E-001	0.00000E+000	9	...........	1467.61
	207	2.08	2.92905E-001	4.25690E-007	0.00000E+000	2.92911E-001	0.00000E+000	9	...........	1467.61
	208	2.09	2.91910E-001	2.76884E-007	0.00000E+000	2.91911E-001	0.00000E+000	9	...........	1467.61
	209	2.1	2.90910E-001	2.16915E-007	0.00000E+000	2.90911E-001	0.00000E+000	9	...........	1467.61
	210	2.11	2.89922E-001	9.11264E-008	0.00000E+000	2.89912E-001	0.00000E+000	9	...........	1467.61
	211	2.12	2.88922E-001	4.86023E-008	0.00000E+000	2.88912E-001	0.00000E+000	9	...........	1467.61
	212	2.13	2.87927E-001	-7.08330E-008	0.00000E+000	2.87912E-001	0.00000E+000	9	...........	1467.61
	213	2.14	2.86918E-001	-1.09679E-007	0.00000E+000	2.86913E-001	0.00000E+000	9	...........	1467.61
	214	2.15	2.85927E-001	-2.22203E-007	0.00000E+000	2.85913E-001	0.00000E+000	9	...........	1467.61
	215	2.16	2.84931E-001	-2.46670E-007	0.00000E+000	2.84914E-001	0.00000E+000	9	...........	1467.61
	216	2.17	2.83934E-001	-3.64545E-007	0.00000E+000	2.83914E-001	0.00000E+000	9	...........	1467.61
	217	2.18	2.82930E-001	-3.82881E-007	0.00000E+000	2.82914E-001	0.00000E+000	9	...........	1467.61
	218	2.19	2.81920E-001	-4.92841E-007	0.00000E+000	2.81915E-001	0.00000E+000	9	...........	1467.61
	219	2.2	2.80915E-001	-5.11066E-007	0.00000E+000	2.80915E-001	0.00000E+000	9	...........	1467.61
	220	2.21	2.79912E-001	-6.25764E-007	0.00000E+000	2.79915E-001	0.00000E+000	9	...........	1467.61
	221	2.22	2.78906E-001	-6.30780E-007	0.00000E+000	2.78916E-001	0.00000E+000	9	...........	1467.61
	222	2.23	2.77913E-001	-7.50160E-007	0.00000E+000	2.77916E-001	0.00000E+000	9	...........	1467.61
	223	2.24	2.76914E-001	-7.49491E-007	0.00000E+000	2.76916E-001	0.00000E+000	9	...........	1467.61
	224	2.25	2.75913E-001	-8.58337E-007	0.00000E+000	2.75917E-001	0.00000E+000	9	...........	1467.61
	225	2.26	2.74906E-001	-8.63910E-007	0.00000E+000	2.74917E-001	0.00000E+000	9	...........	1467.61
	226	2.27	2.73904E-001	-9.75041E-007	0.00000E+000	2.73917E-001	0.00000E+000	9	...........	1467.61
	227	2.28	2.72906E-001	-9.79667E-007	0.00000E+000	2.72918E-001	0.00000E+000	9	...........	1467.61
	228	2.29	2.71916E-001	-1.08740E-006	0.00000E+000	2.71918E-001	0.00000E+000	9	...........	1467.61
	229	2.3	2.70921E-001	-1.08762E-006	0.00000E+000	2.70918E-001	0.00000E+000	9	...........	1467.61
	230	2.31	2.69933E-001	-1.18593E-006	0.00000E+000	2.69919E-001	0.00000E+000	9	...........	1467.61
	231	2.32	2.68938E-001	-1.19608E-006	0.00000E+000	2.68919E-001	0.00000E+000	9	...........	1467.61
	232	2.33	2.67893E-001	-1.29289E-006	0.00000E+000	2.67919E-001	0.00000E+000	9	...........	1467.61
	233	2.34	2.66906E-001	-1.29980E-006	0.00000E+000	2.66920E-001	0.00000E+000	9	...........	1467.61
	234	2.35	2.65911E-001	-1.39371E-006	0.00000E+000	2.65920E-001	0.00000E+000	9	...........	1467.61
	235	2.36	2.64913E-001	-1.39287E-006	0.00000E+000	2.64921E-001	0.00000E+000	9	...........	1467.61
	236	2.37	2.63919E-001	-1.49676E-006	0.00000E+000	2.63921E-001	0.00000E+000	9	...........	1467.61
	237	2.38	2.62916E-001	-1.48366E-006	0.00000E+000	2.62921E-001	0.00000E+000	9	...........	1467.61
	238	2.39	2.61910E-001	-1.58247E-006	0.00000E+000	2.61922E-001	0.00000E+000	9	...........	1467.61
	239	2.4	2.60914E-001	-1.58320E-006	0.00000E+000	2.60922E-001	0.00000E+000	9	...........	1467.61
	240	2.41	2.59914E-001	-1.67727E-006	0.00000E+000	2.59922E-001	0.00000E+000	9	...........	1467.61
	241	2.42	2.58917E-001	-1.68235E-006	0.00000E+000	2.58923E-001	0.00000E+000	9	...........	1467.61
	242	2.43	2.57916E-001	-1.77687E-006	0.00000E+000	2.57923E-001	0.00000E+000	9	...........	1467.61
	243	2.44	2.56923E-001	-1.76427E-006	0.00000E+000	2.56923E-001	0.00000E+000	9	...........	1467.61
	244	2.45	2.55912E-001	-1.85289E-006	0.00000E+000	2.55924E-001	0.00000E+000	9	...........	1467.61
	245	2.46	2.54899E-001	-1.86671E-006	0.00000E+000	2.54924E-001	0.00000E+000	9	...........	1467.61
	246	2.47	2.53906E-001	-1.95181E-006	0.00000E+000	2.53924E-001	0.00000E+000	9	...........	1467.61
	247	2.48	2.52909E-001	-1.94880E-006	0.00000E+000	2.52925E-001	0.00000E+000	9	...........	1467.61
	248	2.49	2.51928E-001	-2.02337E-006	0.00000E+000	2.51938E-001	0.00000E+000	9	...........	1467.61
	249	2.5	2.50934E-001	-2.03943E-006	0.00000E+000	2.50938E-001	0.00000E+000	9	...........	1467.61
	250	2.51	2.49931E-001	-2.12576E-006	0.00000E+000	2.49938E-001	0.00000E+000	9	...........	1467.61
	251	2.52	2.48931E-001	-2.12888E-006	0.00000E+000	2.48939E-001	0.00000E+000	9	...........	1467.61
	252	2.53	2.47932E-001	-2.21649E-006	0.00000E+000	2.47939E-001	0.00000E+000	9	...........	1467.61
	253	2.54	2.46936E-001	-2.21861E-006	0.00000E+000	2.46939E-001	0.00000E+000	9	...........	1467.61
	254	2.55	2.45939E-001	-2.30187E-006	0.00000E+000	2.45940E-001	0.00000E+000	9	...........	1467.61
	255	2.56	2.44946E-001	-2.30455E-006	0.00000E+000	2.44940E-001	0.00000E+000	9	...........	1467.61
	256	2.57	2.43952E-001	-2.38881E-006	0.00000E+000	2.43940E-001	0.00000E+000	9	...........	1467.61
	257	2.58	2.42917E-001	-2.39455E-006	0.00000E+000	2.42941E-001	0.00000E+000	9	...........	1467.61
	258	2.59	2.41926E-001	-2.48456E-006	0.00000E+000	2.41941E-001	0.00000E+000	9	...........	1467.61
	259	2.6	2.40924E-001	-2.48746E-006	0.00000E+000	2.40941E-001	0.00000E+000	9	...........	1467.61
	260	2.61	2.39941E-001	-2.57658E-006	0.00000E+000	2.39942E-001	0.00000E+000	9	...........	1467.61
	261	2.62	2.38933E-001	-2.57970E-006	0.00000E+000	2.38942E-001	0.00000E+000	9	...........	1467.61
	262	2.63	2.37935E-001	-2.66029E-006	0.00000E+000	2.37942E-001	0.00000E+000	9	...........	1467.61
	263	2.64	2.36940E-001	-2.66692E-006	0.00000E+000	2.36943E-001	0.00000E+000	9	...........	1467.61
	264	2.65	2.35937E-001	-2.75152E-006	0.00000E+000	2.35943E-001	0.00000E+000	9	...........	1467.61
	265	2.66	2.34936E-001	-2.75085E-006	0.00000E+000	2.34943E-001	0.00000E+000	9	...........	1467.61
	266	2.67	2.33964E-001	-2.84326E-006	0.00000E+000	2.33944E-001	0.00000E+000	9	...........	1467.61
	267	2.68	2.32959E-001	-2.84253E-006	0.00000E+000	2.32944E-001	0.00000E+000	9	...........	1467.61
	268	2.69	2.31959E-001	-2.92898E-006	0.00000E+000	2.31945E-001	0.00000E+000	9	...........	1467.61
	269	2.7	2.30960E-001	-2.93327E-006	0.00000E+000	2.30945E-001	0.00000E+000	9	...........	1467.46
	270	2.71	2.29942E-001	-3.02010E-006	0.00000E+000	2.29945E-001	0.00000E+000	9	...........	1467.43
	271	2.72	2.28950E-001	-3.02734E-006	0.00000E+000	2.28946E-001	0.00000E+000	9	...........	1467.43
	272	2.73	2.27952E-001	-3.11278E-006	0.00000E+000	2.27946E-001	0.00000E+000	9	...........	1467.43
	273	2.74	2.26942E-001	-3.12215E-006	0.00000E+000	2.26946E-001	0.00000E+000	9	...........	1467.43
	274	2.75	2.25950E-001	-3.20630E-006	0.00000E+000	2.25947E-001	0.00000E+000	9	...........	1467.43
	275	2.76	2.24948E-001	-3.21026E-006	0.00000E+000	2.24947E-001	0.00000E+000	9	...........	1467.43
	276	2.77	2.23965E-001	-3.29910E-006	0.00000E+000	2.23947E-001	0.00000E+000	9	...........	1467.43
	277	2.78	2.22956E-001	-3.30562E-006	0.00000E+000	2.22948E-001	0.00000E+000	9	...........	1467.43
	278	2.79	2.21955E-001	-3.39239E-006	0.00000E+000	2.21948E-001	0.00000E+000	9	...........	1467.43
	279	2.8	2.20959E-001	-3.40488E-006	0.00000E+000	2.20948E-001	0.00000E+000	9	...........	1467.43
	280	2.81	2.19955E-001	-3.49266E-006	0.00000E+000	2.19949E-001	0.00000E+000	9	...........	1467.43
	281	2.82	2.18951E-001	-3.49494E-006	0.00000E+000	2.18949E-001	0.00000E+000	9	...........	1467.43
	282	2.83	2.17972E-001	-3.58590E-006	0.00000E+000	2.17949E-001	0.00000E+000	9	...........	1467.43
	283	2.84	2.16942E-001	-3.59571E-006	0.00000E+000	2.16950E-001	0.00000E+000	9	...........	1467.43
	284	2.85	2.15944E-001	-3.68521E-006	0.00000E+000	2.15950E-001	0.00000E+000	9	...........	1467.43
	285	2.86	2.14945E-001	-3.69904E-006	0.00000E+000	2.14950E-001	0.00000E+000	9	...........	1467.43
	286	2.87	2.13941E-001	-3.77962E-006	0.00000E+000	2.13951E-001	0.00000E+000	9	...........	1467.43
	287	2.88	2.12948E-001	-3.80197E-006	0.00000E+000	2.12951E-001	0.00000E+000	9	...........	1467.43
	288	2.89	2.11953E-001	-3.88028E-006	0.00000E+000	2.11951E-001	0.00000E+000	9	...........	1467.43
	289	2.9	2.10949E-001	-3.90112E-006	0.00000E+000	2.10952E-001	0.00000E+000	9	...........	1467.43
	290	2.91	2.09950E-001	-3.99130E-006	0.00000E+000	2.09952E-001	0.00000E+000	9	...........	1467.43
	291	2.92	2.08945E-001	-4.00596E-006	0.00000E+000	2.08953E-001	0.00000E+000	9	...........	1467.43
	292	2.93	2.07953E-001	-4.09897E-006	0.00000E+000	2.07953E-001	0.00000E+000	9	...........	1467.43
	293	2.94	2.06947E-001	-4.11302E-006	0.00000E+000	2.06953E-001	0.00000E+000	9	...........	1467.43
	294	2.95	2.05954E-001	-4.20548E-006	0.00000E+000	2.05954E-001	0.00000E+000	9	...........	1467.43
	295	2.96	2.04961E-001	-4.21646E-006	0.00000E+000	2.04954E-001	0.00000E+000	9	...........	1467.43
	296	2.97	2.03945E-001	-4.31143E-006	0.00000E+000	2.03954E-001	0.00000E+000	9	...........	1467.43
	297	2.98	2.02946E-001	-4.33645E-006	0.00000E+000	2.02955E-001	0.00000E+000	9	...........	1467.43
	298	2.99	2.01949E-001	-4.42607E-006	0.00000E+000	2.01955E-001	0.00000E+000	9	...........	1467.43
	299	3	2.00943E-001	-4.44747E-006	0.00000E+000	2.00955E-001	0.00000E+000	9	...........	1467.43
	300	3.01	1.99959E-001	-4.54261E-006	0.00000E+000	1.99956E-001	0.00000E+000	9	...........	1467.43
	301	3.02	1.98966E-001	-4.55576E-006	0.00000E+000	1.98956E-001	0.00000E+000	9	...........	1467.43
	302	3.03	1.97958E-001	-4.66232E-006	0.00000E+000	1.97956E-001	0.00000E+000	9	...........	1467.43
	303	3.04	1.96964E-001	-4.66945E-006	0.00000E+000	1.96957E-001	0.00000E+000	9	...........	1467.43
	304	3.05	1.95974E-001	-4.77145E-006	0.00000E+000	1.95957E-001	0.00000E+000	9	...........	1467.43
	305	3.06	1.94976E-001	-4.79162E-006	0.00000E+000	1.94957E-001	0.00000E+000	9	...........	1467.43
	306	3.07	1.93984E-001	-4.88854E-006	0.00000E+000	1.93958E-001	0.00000E+000	9	...........	1467.43
	307	3.08	1.92986E-001	-4.90537E-006	0.00000E+000	1.92958E-001	0.00000E+000	9	...........	1467.43
	308	3.09	1.91992E-001	-5.00586E-006	0.00000E+000	1.91958E-001	0.00000E+000	9	...........	1467.43
	309	3.1	1.90957E-001	-5.02704E-006	0.00000E+000	1.90959E-001	0.00000E+000	9	...........	1467.43
	310	3.11	1.89967E-001	-5.12418E-006	0.00000E+000	1.89959E-001	0.00000E+000	9	...........	1467.43
	311	3.12	1.88967E-001	-5.15020E-006	0.00000E+000	1.88960E-001	0.00000E+000	9	...........	1467.43
	312	3.13	1.87973E-001	-5.25554E-006	0.00000E+000	1.87960E-001	0.00000E+000	9	...........	1467.43
	313	3.14	1.86970E-001	-5.27337E-006	0.00000E+000	1.86960E-001	0.00000E+000	9	...........	1467.43
	314	3.15	1.85979E-001	-5.37185E-006	0.00000E+000	1.85961E-001	0.00000E+000	9	...........	1467.43
	315	3.16	1.84977E-001	-5.39114E-006	0.00000E+000	1.84961E-001	0.00000E+000	9	...........	1467.43
	316	3.17	1.83976E-001	-5.49619E-006	0.00000E+000	1.83961E-001	0.00000E+000	9	...........	1467.43
	317	3.18	1.82975E-001	-5.51754E-006	0.00000E+000	1.82962E-001	0.00000E+000	9	...........	1467.43
	318	3.19	1.81987E-001	-5.62644E-006	0.00000E+000	1.81962E-001	0.00000E+000	9	...........	1467.43
	319	3.2	1.80981E-001	-5.63363E-006	0.00000E+000	1.80962E-001	0.00000E+000	9	...........	1467.43
	320	3.21	1.79975E-001	-5.73813E-006	0.00000E+000	1.79963E-001	0.00000E+000	9	...........	1467.43
	321	3.22	1.78965E-001	-5.77062E-006	0.00000E+000	1.78963E-001	0.00000E+000	9	...........	1467.43
	322	3.23	1.77961E-001	-5.87150E-006	0.00000E+000	1.77963E-001	0.00000E+000	9	...........	1467.43
	323	3.24	1.76970E-001	-5.89836E-006	0.00000E+000	1.76964E-001	0.00000E+000	9	...........	1467.43
	324	3.25	1.75989E-001	-6.00280E-006	0.00000E+000	1.75964E-001	0.00000E+000	9	...........	1467.43
	325	3.26	1.74976E-001	-6.02393E-006	0.00000E+000	1.74964E-001	0.00000E+000	9	...........	1467.43
	326	3.27	1.73973E-001	-6.13511E-006	0.00000E+000	1.73965E-001	0.00000E+000	9	...........	1467.43
	327	3.28	1.72983E-001	-6.15992E-006	0.00000E+000	1.72965E-001	0.00000E+000	9	...........	1467.43
	328	3.29	1.71974E-001	-6.26124E-006	0.00000E+000	1.71965E-001	0.00000E+000	9	...........	1467.43
	329	3.3	1.70975E-001	-6.29022E-006	0.00000E+000	1.70966E-001	0.00000E+000	9	...........	1467.43
	330	3.31	1.69990E-001	-6.39628E-006	0.00000E+000	1.69966E-001	0.00000E+000	9	...........	1467.43
	331	3.32	1.68987E-001	-6.42754E-006	0.00000E+000	1.68966E-001	0.00000E+000	9	...........	1467.43
	332	3.33	1.67986E-001	-6.53628E-006	0.00000E+000	1.67967E-001	0.00000E+000	9	...........	1467.43
	333	3.34	1.66989E-001	-6.56069E-006	0.00000E+000	1.66967E-001	0.00000E+000	9	...........	1467.43
	334	3.35	1.65962E-001	-6.67366E-006	0.00000E+000	1.65968E-001	0.00000E+000	9	...........	1467.43
	335	3.36	1.64965E-001	-6.70955E-006	0.00000E+000	1.64968E-001	0.00000E+000	9	...........	1467.43
	336	3.37	1.63978E-001	-6.81054E-006	0.00000E+000	1.63968E-001	0.00000E+000	9	...........	1467.43
	337	3.38	1.62976E-001	-6.84253E-006	0.00000E+000	1.62969E-001	0.00000E+000	9	...........	1467.43
	338	3.39	1.61973E-001	-6.95712E-006	0.00000E+000	1.61969E-001	0.00000E+000	9	...........	1467.43
	339	3.4	1.60979E-001	-6.98242E-006	0.00000E+000	1.60969E-001	0.00000E+000	9	...........	1467.43
	340	3.41	1.59984E-001	-7.08597E-006	0.00000E+000	1.59970E-001	0.00000E+000	9	...........	1467.43
	341	3.42	1.58973E-001	-7.12838E-006	0.00000E+000	1.58970E-001	0.00000E+000	9	...........	1467.43
	342	3.43	1.57991E-001	-7.22848E-006	0.00000E+000	1.57970E-001	0.00000E+000	9	...........	1467.43
	343	3.44	1.56995E-001	-7.27412E-006	0.00000E+000	1.56971E-001	0.00000E+000	9	...........	1467.43
	344	3.45	1.55993E-001	-7.37784E-006	0.00000E+000	1.55971E-001	0.00000E+000	9	...........	1467.43
	345	3.46	1.54995E-001	-7.40688E-006	0.00000E+000	1.54971E-001	0.00000E+000	9	...........	1467.43
	346	3.47	1.53982E-001	-7.51762E-006	0.00000E+000	1.53972E-001	0.00000E+000	9	...........	1467.43
	347	3.48	1.52974E-001	-7.55301E-006	0.00000E+000	1.52972E-001	0.00000E+000	9	...........	1467.43
	348	3.49	1.51972E-001	-7.66007E-006	0.00000E+000	1.51972E-001	0.00000E+000	9	...........	1467.43
	349	3.5	1.50976E-001	-7.69641E-006	0.00000E+000	1.50973E-001	0.00000E+000	9	...........	1467.43
	350	3.51	1.49980E-001	-7.80715E-006	0.00000E+000	1.49973E-001	0.00000E+000	9	...........	1467.43
	351	3.52	1.48984E-001	-7.84093E-006	0.00000E+000	1.48973E-001	0.00000E+000	9	...........	1467.43
	352	3.53	1.47983E-001	-7.94894E-006	0.00000E+000	1.47974E-001	0.00000E+000	9	...........	1467.43
	353	3.54	1.46990E-001	-7.98834E-006	0.00000E+000	1.46974E-001	0.00000E+000	9	...........	1467.43
	354	3.55	1.45985E-001	-8.10454E-006	0.00000E+000	1.45975E-001	0.00000E+000	9	...........	1467.43
	355	3.56	1.44987E-001	-8.15448E-006	0.00000E+000	1.44975E-001	0.00000E+000	9	...........	1467.43
	356	3.57	1.43987E-001	-8.25586E-006	0.00000E+000	1.43975E-001	0.00000E+000	9	...........	1467.43
	357	3.58	1.42993E-001	-8.30245E-006	0.00000E+000	1.42976E-001	0.00000E+000	9	...........	1467.43
	358	3.59	1.41996E-001	-8.40862E-006	0.00000E+000	1.41976E-001	0.00000E+000	9	...........	1467.43
	359	3.6	1.41001E-001	-8.44830E-006	0.00000E+000	1.40976E-001	0.00000E+000	9	...........	1467.43
	360	3.61	1.39984E-001	-8.56255E-006	0.00000E+000	1.39977E-001	0.00000E+000	9	...........	1467.43
	361	3.62	1.38983E-001	-8.61004E-006	0.00000E+000	1.38977E-001	0.00000E+000	9	...........	1467.43
	362	3.63	1.37980E-001	-8.71972E-006	0.00000E+000	1.37977E-001	0.00000E+000	9	...........	1467.43
	363	3.64	1.36977E-001	-8.76709E-006	0.00000E+000	1.36978E-001	0.00000E+000	9	...........	1467.43
	364	3.65	1.35980E-001	-8.87182E-006	0.00000E+000	1.35978E-001	0.00000E+000	9	...........	1467.43
	365	3.66	1.34978E-001	-8.92532E-006	0.00000E+000	1.34978E-001	0.00000E+000	9	...........	1467.43
	366	3.67	1.33983E-001	-9.03801E-006	0.00000E+000	1.33979E-001	0.00000E+000	9	...........	1467.43
	367	3.68	1.32990E-001	-9.09112E-006	0.00000E+000	1.32979E-001	0.00000E+000	9	...........	1467.43
	368	3.69	1.31996E-001	-9.20476E-006	0.00000E+000	1.31979E-001	0.00000E+000	9	...........	1467.43
	369	3.7	1.30989E-001	-9.26512E-006	0.00000E+000	1.30980E-001	0.00000E+000	9	...........	1467.52
	370	3.71	1.30001E-001	-9.35613E-006	0.00000E+000	1.29993E-001	0.00000E+000	9	...........	1467.52
	371	3.72	1.29006E-001	-9.41928E-006	0.00000E+000	1.28993E-001	0.00000E+000	9	...........	1467.52
	372	3.73	1.28007E-001	-9.53643E-006	0.00000E+000	1.27993E-001	0.00000E+000	9	...........	1467.52
	373	3.74	1.26990E-001	-9.59121E-006	0.00000E+000	1.26994E-001	0.00000E+000	9	...........	1467.52
	374	3.75	1.25993E-001	-9.70725E-006	0.00000E+000	1.25994E-001	0.00000E+000	9	...........	1467.52
	375	3.76	1.24998E-001	-9.75563E-006	0.00000E+000	1.24994E-001	0.00000E+000	9	...........	1467.52
	376	3.77	1.23990E-001	-9.88420E-006	0.00000E+000	1.23995E-001	0.00000E+000	9	...........	1467.52
	377	3.78	1.23005E-001	-9.93247E-006	0.00000E+000	1.22995E-001	0.00000E+000	9	...........	1467.52
	378	3.79	1.22010E-001	-1.00576E-005	0.00000E+000	1.21995E-001	0.00000E+000	9	...........	1467.52
	379	3.8	1.21004E-001	-1.01127E-005	0.00000E+000	1.20996E-001	0.00000E+000	9	...........	1467.52
	380	3.81	1.20011E-001	-1.02380E-005	0.00000E+000	1.19996E-001	0.00000E+000	9	...........	1467.52
	381	3.82	1.19006E-001	-1.02938E-005	0.00000E+000	1.18996E-001	0.00000E+000	9	...........	1467.52
	382	3.83	1.17995E-001	-1.04236E-005	0.00000E+000	1.17997E-001	0.00000E+000	9	...........	1467.52
	383	3.84	1.16998E-001	-1.04804E-005	0.00000E+000	1.16997E-001	0.00000E+000	9	...........	1467.52
	384	3.85	1.16017E-001	-1.06145E-005	0.00000E+000	1.15997E-001	0.00000E+000	9	...........	1467.52
	385	3.86	1.15009E-001	-1.06676E-005	0.00000E+000	1.14998E-001	0.00000E+000	9	...........	1467.52
	386	3.87	1.13990E-001	-1.08004E-005	0.00000E+000	1.13998E-001	0.00000E+000	9	...........	1467.52
[...]
	1003	10.04	2.96915E-001	9.02595E-007	0.00000E+000	2.96909E-001	0.00000E+000	9	...........	1467.52
	1004	10.05	2.95925E-001	7.80986E-007	0.00000E+000	2.95910E-001	0.00000E+000	9	...........	1467.52
	1005	10.06	2.94933E-001	6.07100E-007	0.00000E+000	2.94910E-001	0.00000E+000	9	...........	1467.52
	1006	10.07	2.93903E-001	5.18597E-007	0.00000E+000	2.93910E-001	0.00000E+000	9	...........	1467.52
	1007	10.08	2.92906E-001	3.68620E-007	0.00000E+000	2.92911E-001	0.00000E+000	9	...........	1467.52
	1008	10.09	2.91904E-001	3.04694E-007	0.00000E+000	2.91911E-001	0.00000E+000	9	...........	1467.52
	1009	10.1	2.90902E-001	1.63467E-007	0.00000E+000	2.90911E-001	0.00000E+000	9	...........	1467.52
	1010	10.11	2.89920E-001	1.15091E-007	0.00000E+000	2.89912E-001	0.00000E+000	9	...........	1467.52
	1011	10.12	2.88924E-001	-5.84860E-009	0.00000E+000	2.88912E-001	0.00000E+000	9	...........	1467.52
	1012	10.13	2.87926E-001	-5.11594E-008	0.00000E+000	2.87912E-001	0.00000E+000	9	...........	1467.52
	1013	10.14	2.86918E-001	-1.58724E-007	0.00000E+000	2.86913E-001	0.00000E+000	9	...........	1467.52
	1014	10.15	2.85923E-001	-1.97235E-007	0.00000E+000	2.85913E-001	0.00000E+000	9	...........	1467.52
	1015	10.16	2.84930E-001	-3.06081E-007	0.00000E+000	2.84914E-001	0.00000E+000	9	...........	1467.52
	1016	10.17	2.83929E-001	-3.32443E-007	0.00000E+000	2.83914E-001	0.00000E+000	9	...........	1467.52
	1017	10.18	2.82912E-001	-4.43574E-007	0.00000E+000	2.82914E-001	0.00000E+000	9	...........	1467.52
	1018	10.19	2.81916E-001	-4.74171E-007	0.00000E+000	2.81915E-001	0.00000E+000	9	...........	1467.52
	1019	10.2	2.80907E-001	-5.68749E-007	0.00000E+000	2.80915E-001	0.00000E+000	9	...........	1467.52
	1020	10.21	2.79908E-001	-5.92715E-007	0.00000E+000	2.79915E-001	0.00000E+000	9	...........	1467.52
	1021	10.22	2.78906E-001	-6.96099E-007	0.00000E+000	2.78916E-001	0.00000E+000	9	...........	1467.52
	1022	10.23	2.77916E-001	-7.09698E-007	0.00000E+000	2.77916E-001	0.00000E+000	9	...........	1467.52
	1023	10.24	2.76914E-001	-8.06728E-007	0.00000E+000	2.76916E-001	0.00000E+000	9	...........	1467.52
	1024	10.25	2.75911E-001	-8.21888E-007	0.00000E+000	2.75917E-001	0.00000E+000	9	...........	1467.52
	1025	10.26	2.74905E-001	-9.21872E-007	0.00000E+000	2.74917E-001	0.00000E+000	9	...........	1467.52
	1026	10.27	2.73909E-001	-9.34468E-007	0.00000E+000	2.73917E-001	0.00000E+000	9	...........	1467.52
	1027	10.28	2.72916E-001	-1.03735E-006	0.00000E+000	2.72918E-001	0.00000E+000	9	...........	1467.52
	1028	10.29	2.71925E-001	-1.05234E-006	0.00000E+000	2.71918E-001	0.00000E+000	9	...........	1467.52
	1029	10.3	2.70934E-001	-1.14464E-006	0.00000E+000	2.70918E-001	0.00000E+000	9	...........	1467.52
	1030	10.31	2.69931E-001	-1.16409E-006	0.00000E+000	2.69919E-001	0.00000E+000	9	...........	1467.52
	1031	10.32	2.68947E-001	-1.25237E-006	0.00000E+000	2.68919E-001	0.00000E+000	9	...........	1467.52
	1032	10.33	2.67906E-001	-1.26429E-006	0.00000E+000	2.67919E-001	0.00000E+000	9	...........	1467.52
	1033	10.34	2.66909E-001	-1.35570E-006	0.00000E+000	2.66920E-001	0.00000E+000	9	...........	1467.52
	1034	10.35	2.65915E-001	-1.36350E-006	0.00000E+000	2.65920E-001	0.00000E+000	9	...........	1467.52
	1035	10.36	2.64911E-001	-1.44799E-006	0.00000E+000	2.64921E-001	0.00000E+000	9	...........	1467.52
	1036	10.37	2.63922E-001	-1.46203E-006	0.00000E+000	2.63921E-001	0.00000E+000	9	...........	1467.52
	1037	10.38	2.62926E-001	-1.54106E-006	0.00000E+000	2.62921E-001	0.00000E+000	9	...........	1467.52
	1038	10.39	2.61914E-001	-1.55332E-006	0.00000E+000	2.61922E-001	0.00000E+000	9	...........	1467.52
	1039	10.4	2.60916E-001	-1.63926E-006	0.00000E+000	2.60922E-001	0.00000E+000	9	...........	1467.52
	1040	10.41	2.59917E-001	-1.64662E-006	0.00000E+000	2.59922E-001	0.00000E+000	9	...........	1467.52
	1041	10.42	2.58920E-001	-1.72487E-006	0.00000E+000	2.58923E-001	0.00000E+000	9	...........	1467.52
	1042	10.43	2.57923E-001	-1.73501E-006	0.00000E+000	2.57923E-001	0.00000E+000	9	...........	1467.52
	1043	10.44	2.56922E-001	-1.81895E-006	0.00000E+000	2.56923E-001	0.00000E+000	9	...........	1467.52
	1044	10.45	2.55915E-001	-1.82190E-006	0.00000E+000	2.55924E-001	0.00000E+000	9	...........	1467.52
	1045	10.46	2.54898E-001	-1.90907E-006	0.00000E+000	2.54924E-001	0.00000E+000	9	...........	1467.52
	1046	10.47	2.53903E-001	-1.91224E-006	0.00000E+000	2.53924E-001	0.00000E+000	9	...........	1467.52
	1047	10.48	2.52911E-001	-1.99852E-006	0.00000E+000	2.52925E-001	0.00000E+000	9	...........	1467.52
	1048	10.49	2.51929E-001	-1.99027E-006	0.00000E+000	2.51938E-001	0.00000E+000	9	...........	1467.52
	1049	10.5	2.50932E-001	-2.08117E-006	0.00000E+000	2.50938E-001	0.00000E+000	9	...........	1467.52
	1050	10.51	2.49943E-001	-2.08485E-006	0.00000E+000	2.49938E-001	0.00000E+000	9	...........	1467.52
	1051	10.52	2.48932E-001	-2.16923E-006	0.00000E+000	2.48939E-001	0.00000E+000	9	...........	1467.52
	1052	10.53	2.47935E-001	-2.17469E-006	0.00000E+000	2.47939E-001	0.00000E+000	9	...........	1467.52
	1053	10.54	2.46937E-001	-2.25890E-006	0.00000E+000	2.46939E-001	0.00000E+000	9	...........	1467.52
	1054	10.55	2.45943E-001	-2.26670E-006	0.00000E+000	2.45940E-001	0.00000E+000	9	...........	1467.52
	1055	10.56	2.44942E-001	-2.35080E-006	0.00000E+000	2.44940E-001	0.00000E+000	9	...........	1467.52
	1056	10.57	2.43955E-001	-2.35621E-006	0.00000E+000	2.43940E-001	0.00000E+000	9	...........	1467.52
	1057	10.58	2.42930E-001	-2.42900E-006	0.00000E+000	2.42941E-001	0.00000E+000	9	...........	1467.52
	1058	10.59	2.41938E-001	-2.44360E-006	0.00000E+000	2.41941E-001	0.00000E+000	9	...........	1467.52
	1059	10.6	2.40926E-001	-2.53182E-006	0.00000E+000	2.40941E-001	0.00000E+000	9	...........	1467.52
	1060	10.61	2.39939E-001	-2.52876E-006	0.00000E+000	2.39942E-001	0.00000E+000	9	...........	1467.52
	1061	10.62	2.38937E-001	-2.62167E-006	0.00000E+000	2.38942E-001	0.00000E+000	9	...........	1467.52
	1062	10.63	2.37941E-001	-2.61665E-006	0.00000E+000	2.37942E-001	0.00000E+000	9	...........	1467.52
	1063	10.64	2.36949E-001	-2.70226E-006	0.00000E+000	2.36943E-001	0.00000E+000	9	...........	1467.52
	1064	10.65	2.35941E-001	-2.70788E-006	0.00000E+000	2.35943E-001	0.00000E+000	9	...........	1467.52
	1065	10.66	2.34949E-001	-2.79784E-006	0.00000E+000	2.34943E-001	0.00000E+000	9	...........	1467.52
	1066	10.67	2.33965E-001	-2.80057E-006	0.00000E+000	2.33944E-001	0.00000E+000	9	...........	1467.52
	1067	10.68	2.32962E-001	-2.88667E-006	0.00000E+000	2.32944E-001	0.00000E+000	9	...........	1467.52
	1068	10.69	2.31971E-001	-2.89242E-006	0.00000E+000	2.31945E-001	0.00000E+000	9	...........	1467.49
	1069	10.7	2.30963E-001	-2.97958E-006	0.00000E+000	2.30945E-001	0.00000E+000	9	...........	1467.43
	1070	10.71	2.29944E-001	-2.98131E-006	0.00000E+000	2.29945E-001	0.00000E+000	9	...........	1467.43
	1071	10.72	2.28948E-001	-3.06619E-006	0.00000E+000	2.28946E-001	0.00000E+000	9	...........	1467.43
	1072	10.73	2.27956E-001	-3.07371E-006	0.00000E+000	2.27946E-001	0.00000E+000	9	...........	1467.43
	1073	10.74	2.26945E-001	-3.16461E-006	0.00000E+000	2.26946E-001	0.00000E+000	9	...........	1467.43
	1074	10.75	2.25950E-001	-3.16874E-006	0.00000E+000	2.25947E-001	0.00000E+000	9	...........	1467.43
	1075	10.76	2.24950E-001	-3.25613E-006	0.00000E+000	2.24947E-001	0.00000E+000	9	...........	1467.43
	1076	10.77	2.23965E-001	-3.25992E-006	0.00000E+000	2.23947E-001	0.00000E+000	9	...........	1467.43
	1077	10.78	2.22960E-001	-3.35149E-006	0.00000E+000	2.22948E-001	0.00000E+000	9	...........	1467.43
	1078	10.79	2.21960E-001	-3.35829E-006	0.00000E+000	2.21948E-001	0.00000E+000	9	...........	1467.43
	1079	10.8	2.20962E-001	-3.44880E-006	0.00000E+000	2.20948E-001	0.00000E+000	9	...........	1467.43
	1080	10.81	2.19958E-001	-3.45493E-006	0.00000E+000	2.19949E-001	0.00000E+000	9	...........	1467.43
	1081	10.82	2.18959E-001	-3.54276E-006	0.00000E+000	2.18949E-001	0.00000E+000	9	...........	1467.43
	1082	10.83	2.17970E-001	-3.55006E-006	0.00000E+000	2.17949E-001	0.00000E+000	9	...........	1467.43
	1083	10.84	2.16948E-001	-3.63372E-006	0.00000E+000	2.16950E-001	0.00000E+000	9	...........	1467.43
	1084	10.85	2.15944E-001	-3.64798E-006	0.00000E+000	2.15950E-001	0.00000E+000	9	...........	1467.43
	1085	10.86	2.14949E-001	-3.74000E-006	0.00000E+000	2.14950E-001	0.00000E+000	9	...........	1467.43
	1086	10.87	2.13947E-001	-3.74780E-006	0.00000E+000	2.13951E-001	0.00000E+000	9	...........	1467.43
	1087	10.88	2.12952E-001	-3.84338E-006	0.00000E+000	2.12951E-001	0.00000E+000	9	...........	1467.43
	1088	10.89	2.11963E-001	-3.84567E-006	0.00000E+000	2.11951E-001	0.00000E+000	9	...........	1467.43
	1089	10.9	2.10957E-001	-3.93975E-006	0.00000E+000	2.10952E-001	0.00000E+000	9	...........	1467.43
	1090	10.91	2.09963E-001	-3.95463E-006	0.00000E+000	2.09952E-001	0.00000E+000	9	...........	1467.43
	1091	10.92	2.08961E-001	-4.04909E-006	0.00000E+000	2.08953E-001	0.00000E+000	9	...........	1467.43
	1092	10.93	2.07964E-001	-4.05918E-006	0.00000E+000	2.07953E-001	0.00000E+000	9	...........	1467.43
	1093	10.94	2.06951E-001	-4.14746E-006	0.00000E+000	2.06953E-001	0.00000E+000	9	...........	1467.43
	1094	10.95	2.05963E-001	-4.16323E-006	0.00000E+000	2.05954E-001	0.00000E+000	9	...........	1467.43
	1095	10.96	2.04971E-001	-4.25296E-006	0.00000E+000	2.04954E-001	0.00000E+000	9	...........	1467.43
	1096	10.97	2.03953E-001	-4.26489E-006	0.00000E+000	2.03954E-001	0.00000E+000	9	...........	1467.43
	1097	10.98	2.02957E-001	-4.36309E-006	0.00000E+000	2.02955E-001	0.00000E+000	9	...........	1467.43
	1098	10.99	2.01955E-001	-4.37619E-006	0.00000E+000	2.01955E-001	0.00000E+000	9	...........	1467.43
	1099	11	2.00957E-001	-4.47372E-006	0.00000E+000	2.00955E-001	0.00000E+000	9	...........	1467.43
	1100	11.01	1.99970E-001	-4.49473E-006	0.00000E+000	1.99956E-001	0.00000E+000	9	...........	1467.43
	1101	11.02	1.98984E-001	-4.58262E-006	0.00000E+000	1.98956E-001	0.00000E+000	9	...........	1467.43
	1102	11.03	1.97976E-001	-4.60547E-006	0.00000E+000	1.97956E-001	0.00000E+000	9	...........	1467.43
	1103	11.04	1.96972E-001	-4.70100E-006	0.00000E+000	1.96957E-001	0.00000E+000	9	...........	1467.43
	1104	11.05	1.95977E-001	-4.72307E-006	0.00000E+000	1.95957E-001	0.00000E+000	9	...........	1467.43
	1105	11.06	1.94978E-001	-4.81503E-006	0.00000E+000	1.94957E-001	0.00000E+000	9	...........	1467.43
	1106	11.07	1.93986E-001	-4.83013E-006	0.00000E+000	1.93958E-001	0.00000E+000	9	...........	1467.43
	1107	11.08	1.92983E-001	-4.92984E-006	0.00000E+000	1.92958E-001	0.00000E+000	9	...........	1467.43
	1108	11.09	1.91990E-001	-4.95603E-006	0.00000E+000	1.91958E-001	0.00000E+000	9	...........	1467.43
	1109	11.1	1.90957E-001	-5.05518E-006	0.00000E+000	1.90959E-001	0.00000E+000	9	...........	1467.43
	1110	11.11	1.89958E-001	-5.07653E-006	0.00000E+000	1.89959E-001	0.00000E+000	9	...........	1467.43
	1111	11.12	1.88956E-001	-5.18153E-006	0.00000E+000	1.88960E-001	0.00000E+000	9	...........	1467.43
	1112	11.13	1.87968E-001	-5.20142E-006	0.00000E+000	1.87960E-001	0.00000E+000	9	...........	1467.43
	1113	11.14	1.86968E-001	-5.30079E-006	0.00000E+000	1.86960E-001	0.00000E+000	9	...........	1467.43
	1114	11.15	1.85971E-001	-5.32961E-006	0.00000E+000	1.85961E-001	0.00000E+000	9	...........	1467.43
	1115	11.16	1.84971E-001	-5.42725E-006	0.00000E+000	1.84961E-001	0.00000E+000	9	...........	1467.43
	1116	11.17	1.83967E-001	-5.44654E-006	0.00000E+000	1.83961E-001	0.00000E+000	9	...........	1467.43
	1117	11.18	1.82970E-001	-5.55973E-006	0.00000E+000	1.82962E-001	0.00000E+000	9	...........	1467.43
	1118	11.19	1.81980E-001	-5.57377E-006	0.00000E+000	1.81962E-001	0.00000E+000	9	...........	1467.43
	1119	11.2	1.80982E-001	-5.67967E-006	0.00000E+000	1.80962E-001	0.00000E+000	9	...........	1467.43
	1120	11.21	1.79963E-001	-5.69995E-006	0.00000E+000	1.79963E-001	0.00000E+000	9	...........	1467.43
	1121	11.22	1.78951E-001	-5.80529E-006	0.00000E+000	1.78963E-001	0.00000E+000	9	...........	1467.43
	1122	11.23	1.77949E-001	-5.82524E-006	0.00000E+000	1.77963E-001	0.00000E+000	9	...........	1467.43
	1123	11.24	1.76957E-001	-5.93024E-006	0.00000E+000	1.76964E-001	0.00000E+000	9	...........	1467.43
	1124	11.25	1.75968E-001	-5.95855E-006	0.00000E+000	1.75964E-001	0.00000E+000	9	...........	1467.43
	1125	11.26	1.74959E-001	-6.06205E-006	0.00000E+000	1.74964E-001	0.00000E+000	9	...........	1467.43
	1126	11.27	1.73965E-001	-6.08769E-006	0.00000E+000	1.73965E-001	0.00000E+000	9	...........	1467.43
	1127	11.28	1.72972E-001	-6.19224E-006	0.00000E+000	1.72965E-001	0.00000E+000	9	...........	1467.43
	1128	11.29	1.71959E-001	-6.22050E-006	0.00000E+000	1.71965E-001	0.00000E+000	9	...........	1467.43
	1129	11.3	1.70962E-001	-6.32778E-006	0.00000E+000	1.70966E-001	0.00000E+000	9	...........	1467.43
	1130	11.31	1.69972E-001	-6.35459E-006	0.00000E+000	1.69966E-001	0.00000E+000	9	...........	1467.43
	1131	11.32	1.68973E-001	-6.46494E-006	0.00000E+000	1.68966E-001	0.00000E+000	9	...........	1467.43
	1132	11.33	1.67978E-001	-6.48422E-006	0.00000E+000	1.67967E-001	0.00000E+000	9	...........	1467.43
	1133	11.34	1.66980E-001	-6.59430E-006	0.00000E+000	1.66967E-001	0.00000E+000	9	...........	1467.43
	1134	11.35	1.65951E-001	-6.62545E-006	0.00000E+000	1.65968E-001	0.00000E+000	9	...........	1467.43
	1135	11.36	1.64958E-001	-6.72583E-006	0.00000E+000	1.64968E-001	0.00000E+000	9	...........	1467.43
	1136	11.37	1.63970E-001	-6.75849E-006	0.00000E+000	1.63968E-001	0.00000E+000	9	...........	1467.43
	1137	11.38	1.62970E-001	-6.87402E-006	0.00000E+000	1.62969E-001	0.00000E+000	9	...........	1467.43
	1138	11.39	1.61974E-001	-6.90044E-006	0.00000E+000	1.61969E-001	0.00000E+000	9	...........	1467.43
	1139	11.4	1.60975E-001	-7.01519E-006	0.00000E+000	1.60969E-001	0.00000E+000	9	...........	1467.43
	1140	11.41	1.59978E-001	-7.04289E-006	0.00000E+000	1.59970E-001	0.00000E+000	9	...........	1467.43
	1141	11.42	1.58967E-001	-7.15675E-006	0.00000E+000	1.58970E-001	0.00000E+000	9	...........	1467.43
	1142	11.43	1.57986E-001	-7.18200E-006	0.00000E+000	1.57970E-001	0.00000E+000	9	...........	1467.43
	1143	11.44	1.56988E-001	-7.29179E-006	0.00000E+000	1.56971E-001	0.00000E+000	9	...........	1467.43
	1144	11.45	1.55983E-001	-7.33209E-006	0.00000E+000	1.55971E-001	0.00000E+000	9	...........	1467.43
	1145	11.46	1.54983E-001	-7.43698E-006	0.00000E+000	1.54971E-001	0.00000E+000	9	...........	1467.43
	1146	11.47	1.53967E-001	-7.47125E-006	0.00000E+000	1.53972E-001	0.00000E+000	9	...........	1467.43
	1147	11.48	1.52967E-001	-7.57876E-006	0.00000E+000	1.52972E-001	0.00000E+000	9	...........	1467.43
	1148	11.49	1.51963E-001	-7.61248E-006	0.00000E+000	1.51972E-001	0.00000E+000	9	...........	1467.43
	1149	11.5	1.50968E-001	-7.72595E-006	0.00000E+000	1.50973E-001	0.00000E+000	9	...........	1467.43
	1150	11.51	1.49974E-001	-7.76301E-006	0.00000E+000	1.49973E-001	0.00000E+000	9	...........	1467.43
	1151	11.52	1.48978E-001	-7.87292E-006	0.00000E+000	1.48973E-001	0.00000E+000	9	...........	1467.43
	1152	11.53	1.47984E-001	-7.90207E-006	0.00000E+000	1.47974E-001	0.00000E+000	9	...........	1467.43
	1153	11.54	1.46988E-001	-8.01392E-006	0.00000E+000	1.46974E-001	0.00000E+000	9	...........	1467.43
	1154	11.55	1.45983E-001	-8.04831E-006	0.00000E+000	1.45975E-001	0.00000E+000	9	...........	1467.43
	1155	11.56	1.44982E-001	-8.17008E-006	0.00000E+000	1.44975E-001	0.00000E+000	9	...........	1467.43
	1156	11.57	1.43983E-001	-8.20893E-006	0.00000E+000	1.43975E-001	0.00000E+000	9	...........	1467.43
	1157	11.58	1.42988E-001	-8.32641E-006	0.00000E+000	1.42976E-001	0.00000E+000	9	...........	1467.43
	1158	11.59	1.41991E-001	-8.35094E-006	0.00000E+000	1.41976E-001	0.00000E+000	9	...........	1467.43
	1159	11.6	1.40997E-001	-8.47305E-006	0.00000E+000	1.40976E-001	0.00000E+000	9	...........	1467.43
	1160	11.61	1.39974E-001	-8.51323E-006	0.00000E+000	1.39977E-001	0.00000E+000	9	...........	1467.43
	1161	11.62	1.38979E-001	-8.63439E-006	0.00000E+000	1.38977E-001	0.00000E+000	9	...........	1467.43
	1162	11.63	1.37978E-001	-8.66505E-006	0.00000E+000	1.37977E-001	0.00000E+000	9	...........	1467.43
	1163	11.64	1.36979E-001	-8.78705E-006	0.00000E+000	1.36978E-001	0.00000E+000	9	...........	1467.43
	1164	11.65	1.35982E-001	-8.83197E-006	0.00000E+000	1.35978E-001	0.00000E+000	9	...........	1467.43
	1165	11.66	1.34989E-001	-8.94984E-006	0.00000E+000	1.34978E-001	0.00000E+000	9	...........	1467.43
	1166	11.67	1.33988E-001	-8.98885E-006	0.00000E+000	1.33979E-001	0.00000E+000	9	...........	1467.43
	1167	11.68	1.32997E-001	-9.11436E-006	0.00000E+000	1.32979E-001	0.00000E+000	9	...........	1467.43
	1168	11.69	1.32001E-001	-9.15739E-006	0.00000E+000	1.31979E-001	0.00000E+000	9	...........	1467.43
	1169	11.7	1.31005E-001	-9.28613E-006	0.00000E+000	1.30980E-001	0.00000E+000	9	...........	1467.43
	1170	11.71	1.30009E-001	-9.31004E-006	0.00000E+000	1.29993E-001	0.00000E+000	9	...........	1467.43
	1171	11.72	1.29008E-001	-9.45077E-006	0.00000E+000	1.28993E-001	0.00000E+000	9	...........	1467.43
	1172	11.73	1.28013E-001	-9.49184E-006	0.00000E+000	1.27993E-001	0.00000E+000	9	...........	1467.43
	1173	11.74	1.26992E-001	-9.61529E-006	0.00000E+000	1.26994E-001	0.00000E+000	9	...........	1467.43
	1174	11.75	1.25999E-001	-9.66149E-006	0.00000E+000	1.25994E-001	0.00000E+000	9	...........	1467.43
	1175	11.76	1.25000E-001	-9.79274E-006	0.00000E+000	1.24994E-001	0.00000E+000	9	...........	1467.43
	1176	11.77	1.24002E-001	-9.83131E-006	0.00000E+000	1.23995E-001	0.00000E+000	9	...........	1467.43
	1177	11.78	1.23001E-001	-9.96262E-006	0.00000E+000	1.22995E-001	0.00000E+000	9	...........	1467.43
	1178	11.79	1.22014E-001	-1.00128E-005	0.00000E+000	1.21995E-001	0.00000E+000	9	...........	1467.43
	1179	11.8	1.21004E-001	-1.01376E-005	0.00000E+000	1.20996E-001	0.00000E+000	9	...........	1467.43
	1180	11.81	1.20012E-001	-1.01901E-005	0.00000E+000	1.19996E-001	0.00000E+000	9	...........	1467.43
	1181	11.82	1.19015E-001	-1.03263E-005	0.00000E+000	1.18996E-001	0.00000E+000	9	...........	1467.43
	1182	11.83	1.18008E-001	-1.03757E-005	0.00000E+000	1.17997E-001	0.00000E+000	9	...........	1467.43
	1183	11.84	1.17012E-001	-1.05045E-005	0.00000E+000	1.16997E-001	0.00000E+000	9	...........	1467.43
	1184	11.85	1.16023E-001	-1.05582E-005	0.00000E+000	1.15997E-001	0.00000E+000	9	...........	1467.43
	1185	11.86	1.15006E-001	-1.06919E-005	0.00000E+000	1.14998E-001	0.00000E+000	9	...........	1467.43
	1186	11.87	1.13989E-001	-1.07519E-005	0.00000E+000	1.13998E-001	0.00000E+000	9	...........	1467.43
	1187	11.88	1.12992E-001	-1.08867E-005	0.00000E+000	1.12999E-001	0.00000E+000	9	...........	1467.43
	1188	11.89	1.11996E-001	-1.09385E-005	0.00000E+000	1.11999E-001	0.00000E+000	9	...........	1467.43
	1189	11.9	1.11002E-001	-1.10802E-005	0.00000E+000	1.10999E-001	0.00000E+000	9	...........	1467.43
	1190	11.91	1.10004E-001	-1.11342E-005	0.00000E+000	1.10000E-001	0.00000E+000	9	...........	1467.43
	1191	11.92	1.09007E-001	-1.12700E-005	0.00000E+000	1.09000E-001	0.00000E+000	9	...........	1467.43
	1192	11.93	1.08008E-001	-1.13278E-005	0.00000E+000	1.08000E-001	0.00000E+000	9	...........	1467.43
	1193	11.94	1.07009E-001	-1.14783E-005	0.00000E+000	1.07001E-001	0.00000E+000	9	...........	1467.43
	1194	11.95	1.06005E-001	-1.15341E-005	0.00000E+000	1.06001E-001	0.00000E+000	9	...........	1467.43
	1195	11.96	1.05001E-001	-1.16748E-005	0.00000E+000	1.05001E-001	0.00000E+000	9	...........	1467.43
	1196	11.97	1.04019E-001	-1.17287E-005	0.00000E+000	1.04002E-001	0.00000E+000	9	...........	1467.43
	1197	11.98	1.03031E-001	-1.18721E-005	0.00000E+000	1.03002E-001	0.00000E+000	9	...........	1467.43
	1198	11.99	1.02007E-001	-1.19382E-005	0.00000E+000	1.02002E-001	0.00000E+000	9	...........	1467.43
	1199	12	1.01007E-001	-1.20804E-005	0.00000E+000	1.01003E-001	0.00000E+000	9	...........	1467.43
	1200	12.01	1.00017E-001	-1.21406E-005	0.00000E+000	1.00003E-001	0.00000E+000	9	...........	1467.43
CURVE4	TABLE
	Pt	T	Vf	Im	Vu	Sig	Ach	IERange	Over	Temp
	#	s	V vs. Ref.	A	V	V	V	#	bits	deg C
	1201	12.02	9.99903E-002	-1.08463E-005	0.00000E+000	1.00003E-001	0.00000E+000	9	...........	1467.43