File: input/ECSA_test/CV_ECSA_#2_#7.DTA
EXPLAIN
TAG	CV
TITLE	LABEL	ECSA	Test Identifier
DATE	LABEL	2/13/2024	Date
TIME	LABEL	12:05:09	Time
NOTES	NOTES	1	Notes...

PSTAT	PSTAT	IFC1010-36068	Potentiostat
VINIT	POTEN	1.00000E-001	F	Initial E (V)
VLIMIT1	POTEN	3.00000E-001	F	Scan Limit 1 (V)
VLIMIT2	POTEN	1.00000E-001	F	Scan Limit 2 (V)
VFINAL	POTEN	1.00000E-001	F	Final E (V)
SCANRATE	QUANT	6.99999E+001	A Real Number
STEPSIZE	QUANT	1.00000E+000	Step Size (mV)
CYCLES	IQUANT	3	Cycles (#)
IMODE	SELECTOR	1	I/E Range Mode
IRANGE	QUANT	3.00000E-001	Max Current (mA)
AREA	QUANT	1.00000E+000	Sample Area (cm^2)
EQDELAY	QUANT	0.00000E+000	Equil. Time (s)
IRCOMP	SELECTOR	0	IRComp
PFCOR	QUANT	5.00000E+001	PF Corr. (ohm)
SAMPLINGMODE	SELECTOR	2	Sampling Mode
EOC	QUANT	0.3246219	Open Circuit (V)
ELECTRODETYPE	SELECTOR	0	Electrode Type
STRIPPING	TOGGLE	F	Used for Stripping
SEQUENCER	TOGGLE	TRUE	Run as Sequence
PSTATMODEL	IQUANT	64	Pstat Model
PSTATSECTION	LABEL	IFC1010-36068	Pstat Section
PSTATSERIALNO	LABEL	36068	Pstat Serial Number
CTRLMODE	IQUANT	1	Control Mode
ELECTROMETER	IQUANT	0	RE=0 or CS=1
IESTAB	IQUANT	2	I/E Stability
CASPEED	IQUANT	4	Control Amp Speed
CONVENTION	IQUANT	1	Current Convention
ICHRANGE	IQUANT	2	Ich Range
ICHRANGEMODE	TOGGLE	F	Ich Auto Range
ICHOFFSETENABLE	TOGGLE	F	Ich Offset Enable
ICHOFFSET	QUANT	0	Ich Offset (V)
ICHFILTER	IQUANT	3	Ich Filter
VCHRANGE	IQUANT	2	Vch Range
VCHRANGEMODE	TOGGLE	F	Vch Auto Range
VCHOFFSETENABLE	TOGGLE	F	Vch Offset Enable
VCHOFFSET	QUANT	0	Vch Offset (V)
VCHFILTER	IQUANT	3	Vch Filter
IERANGELOWERLIMIT	IQUANT	4	I/E Range Lower Limit
IERANGEMODE	TOGGLE	F	I/E AutoRange
IERANGE	IQUANT	9	I/E Range
ACHSELECT	IQUANT	0	Ach Select
ACHRANGE	IQUANT	2	Ach Range
ACHOFFSETENABLE	TOGGLE	F	Ach Offset Enable
ACHOFFSET	QUANT	0	Ach Offset (V)
ACHFILTER	IQUANT	1	Ach Filter
SENSECABLEID	IQUANT	13	Sense Cable ID
PWRCABLEID	IQUANT	13	Power Cable ID
DCCALDATE	LABEL	8/11/2023	DC Calibration Date
ACCALDATE	LABEL	6/2/2023	AC Calibration Date
FRAMEWORKVERSION	LABEL	7.10.3	Framework Version
INSTRUMENTVERSION	LABEL	4.91	Instrument Version
COMMVERSION	LABEL	3.10	Communications Version
CPUPLDVERSION	LABEL	2.22	CPU PLD Version
CTRLPLDVERSION	LABEL	0.00	CTRL PLD Version
PSTATPLDVERSION	LABEL	0.00	PSTAT PLD Version
CURVE1	TABLE
	Pt	T	Vf	Im	Vu	Sig	Ach	IERange	Over	Temp
	#	s	V vs. Ref.	A	V	V	V	#	bits	deg C
	0	0.014283	9.99976E-002	-2.99024E-006	0.00000E+000	1.00003E-001	0.00000E+000	9	...........	1467.52
	1	0.028567	1.00976E-001	-1.83541E-006	0.00000E+000	1.01003E-001	0.00000E+000	9	...........	1467.52
	2	0.04285	1.01975E-001	-1.70221E-006	0.00000E+000	1.02002E-001	0.00000E+000	9	...........	1467.52
	3	0.057133	1.02991E-001	-1.59264E-006	0.00000E+000	1.03002E-001	0.00000E+000	9	...........	1467.52
	4	0.071417	1.03993E-001	-1.46307E-006	0.00000E+000	1.04002E-001	0.00000E+000	9	...........	1467.52
	5	0.0857	1.04983E-001	-1.38764E-006	0.00000E+000	1.05001E-001	0.00000E+000	9	...........	1467.52
	6	0.099983	1.05977E-001	-1.32348E-006	0.00000E+000	1.06001E-001	0.00000E+000	9	...........	1467.52
	7	0.114267	1.06975E-001	-1.23063E-006	0.00000E+000	1.07001E-001	0.00000E+000	9	...........	1467.52
	8	0.12855	1.07969E-001	-1.14671E-006	0.00000E+000	1.08000E-001	0.00000E+000	9	...........	1467.52
	9	0.142833	1.08979E-001	-1.09919E-006	0.00000E+000	1.09000E-001	0.00000E+000	9	...........	1467.52
	10	0.157117	1.09972E-001	-1.03873E-006	0.00000E+000	1.10000E-001	0.00000E+000	9	...........	1467.52
	11	0.1714	1.10975E-001	-9.45099E-007	0.00000E+000	1.10999E-001	0.00000E+000	9	...........	1467.52
	12	0.185683	1.11968E-001	-9.01558E-007	0.00000E+000	1.11999E-001	0.00000E+000	9	...........	1467.52
	13	0.199967	1.12964E-001	-8.59030E-007	0.00000E+000	1.12999E-001	0.00000E+000	9	...........	1467.52
	14	0.21425	1.13960E-001	-7.85903E-007	0.00000E+000	1.13998E-001	0.00000E+000	9	...........	1467.52
	15	0.228533	1.14976E-001	-7.23768E-007	0.00000E+000	1.14998E-001	0.00000E+000	9	...........	1467.52
	16	0.242817	1.15989E-001	-6.94065E-007	0.00000E+000	1.15997E-001	0.00000E+000	9	...........	1467.52
	17	0.2571	1.16976E-001	-6.44755E-007	0.00000E+000	1.16997E-001	0.00000E+000	9	...........	1467.52
	18	0.271383	1.17974E-001	-5.63715E-007	0.00000E+000	1.17997E-001	0.00000E+000	9	...........	1467.52
	19	0.285667	1.18980E-001	-5.31283E-007	0.00000E+000	1.18996E-001	0.00000E+000	9	...........	1467.52
	20	0.29995	1.19978E-001	-5.00645E-007	0.00000E+000	1.19996E-001	0.00000E+000	9	...........	1467.52
	21	0.314233	1.20976E-001	-4.36717E-007	0.00000E+000	1.20996E-001	0.00000E+000	9	...........	1467.52
	22	0.328517	1.21981E-001	-3.84211E-007	0.00000E+000	1.21995E-001	0.00000E+000	9	...........	1467.52
	23	0.3428	1.22970E-001	-3.49362E-007	0.00000E+000	1.22995E-001	0.00000E+000	9	...........	1467.52
	24	0.357083	1.23963E-001	-3.18334E-007	0.00000E+000	1.23995E-001	0.00000E+000	9	...........	1467.52
	25	0.371367	1.24966E-001	-2.48052E-007	0.00000E+000	1.24994E-001	0.00000E+000	9	...........	1467.52
	26	0.38565	1.25965E-001	-2.11879E-007	0.00000E+000	1.25994E-001	0.00000E+000	9	...........	1467.52
	27	0.399933	1.26961E-001	-1.87633E-007	0.00000E+000	1.26994E-001	0.00000E+000	9	...........	1467.52
	28	0.414217	1.27970E-001	-1.35555E-007	0.00000E+000	1.27993E-001	0.00000E+000	9	...........	1467.52
	29	0.4285	1.28977E-001	-8.59330E-008	0.00000E+000	1.28993E-001	0.00000E+000	9	...........	1467.52
	30	0.442783	1.29975E-001	-5.93484E-008	0.00000E+000	1.29993E-001	0.00000E+000	9	...........	1467.52
	31	0.457067	1.30983E-001	-2.56304E-008	0.00000E+000	1.30992E-001	0.00000E+000	9	...........	1467.52
	32	0.47135	1.31978E-001	4.35987E-008	0.00000E+000	1.31992E-001	0.00000E+000	9	...........	1467.52
	33	0.485633	1.32974E-001	6.56615E-008	0.00000E+000	1.32992E-001	0.00000E+000	9	...........	1467.52
	34	0.499917	1.33967E-001	8.48399E-008	0.00000E+000	1.33991E-001	0.00000E+000	9	...........	1467.52
	35	0.5142	1.34964E-001	1.33059E-007	0.00000E+000	1.34991E-001	0.00000E+000	9	...........	1467.52
	36	0.528483	1.35966E-001	1.83382E-007	0.00000E+000	1.35991E-001	0.00000E+000	9	...........	1467.52
	37	0.542767	1.36960E-001	1.98701E-007	0.00000E+000	1.36990E-001	0.00000E+000	9	...........	1467.52
	38	0.55705	1.37963E-001	2.27352E-007	0.00000E+000	1.37990E-001	0.00000E+000	9	...........	1467.52
	39	0.571333	1.38957E-001	2.84575E-007	0.00000E+000	1.38989E-001	0.00000E+000	9	...........	1467.52
	40	0.585617	1.39951E-001	3.08119E-007	0.00000E+000	1.39989E-001	0.00000E+000	9	...........	1467.52
	41	0.5999	1.40976E-001	3.22932E-007	0.00000E+000	1.40989E-001	0.00000E+000	9	...........	1467.52
	42	0.614183	1.41978E-001	3.73411E-007	0.00000E+000	1.41988E-001	0.00000E+000	9	...........	1467.52
	43	0.628467	1.42978E-001	4.17108E-007	0.00000E+000	1.42988E-001	0.00000E+000	9	...........	1467.52
	44	0.64275	1.43966E-001	4.35156E-007	0.00000E+000	1.43988E-001	0.00000E+000	9	...........	1467.52
	45	0.657033	1.44960E-001	4.57258E-007	0.00000E+000	1.44987E-001	0.00000E+000	9	...........	1467.52
	46	0.671317	1.45955E-001	5.15027E-007	0.00000E+000	1.45987E-001	0.00000E+000	9	...........	1467.52
	47	0.6856	1.46963E-001	5.35375E-007	0.00000E+000	1.46987E-001	0.00000E+000	9	...........	1467.52
	48	0.699883	1.47964E-001	5.46757E-007	0.00000E+000	1.47986E-001	0.00000E+000	9	...........	1467.52
	49	0.714167	1.48955E-001	5.94313E-007	0.00000E+000	1.48986E-001	0.00000E+000	9	...........	1467.52
	50	0.72845	1.49957E-001	6.40816E-007	0.00000E+000	1.49986E-001	0.00000E+000	9	...........	1467.52
	51	0.742733	1.50950E-001	6.50445E-007	0.00000E+000	1.50985E-001	0.00000E+000	9	...........	1467.52
	52	0.757017	1.51959E-001	6.94103E-007	0.00000E+000	1.51997E-001	0.00000E+000	9	...........	1467.52
	53	0.7713	1.52953E-001	7.43101E-007	0.00000E+000	1.52997E-001	0.00000E+000	9	...........	1467.52
	54	0.785583	1.53960E-001	7.54093E-007	0.00000E+000	1.53997E-001	0.00000E+000	9	...........	1467.52
	55	0.799867	1.54971E-001	7.71128E-007	0.00000E+000	1.54996E-001	0.00000E+000	9	...........	1467.52
	56	0.81415	1.55968E-001	8.10147E-007	0.00000E+000	1.55996E-001	0.00000E+000	9	...........	1467.52
	57	0.828433	1.56978E-001	8.56261E-007	0.00000E+000	1.56996E-001	0.00000E+000	9	...........	1467.52
	58	0.842717	1.57967E-001	8.67058E-007	0.00000E+000	1.57995E-001	0.00000E+000	9	...........	1467.52
	59	0.857	1.58951E-001	8.88692E-007	0.00000E+000	1.58995E-001	0.00000E+000	9	...........	1467.52
	60	0.871283	1.59962E-001	9.42368E-007	0.00000E+000	1.59995E-001	0.00000E+000	9	...........	1467.52
	61	0.885567	1.60956E-001	9.63885E-007	0.00000E+000	1.60994E-001	0.00000E+000	9	...........	1467.52
	62	0.89985	1.61951E-001	9.65718E-007	0.00000E+000	1.61994E-001	0.00000E+000	9	...........	1467.52
	63	0.914133	1.62954E-001	1.00731E-006	0.00000E+000	1.62994E-001	0.00000E+000	9	...........	1467.52
	64	0.928417	1.63962E-001	1.05565E-006	0.00000E+000	1.63993E-001	0.00000E+000	9	...........	1467.52
	65	0.9427	1.64950E-001	1.05514E-006	0.00000E+000	1.64993E-001	0.00000E+000	9	...........	1467.52
	66	0.95698	1.65950E-001	1.08293E-006	0.00000E+000	1.65993E-001	0.00000E+000	9	...........	1467.52
	67	0.97127	1.66979E-001	1.13267E-006	0.00000E+000	1.66992E-001	0.00000E+000	9	...........	1467.52
	68	0.98555	1.67982E-001	1.15380E-006	0.00000E+000	1.67992E-001	0.00000E+000	9	...........	1467.52
	69	0.99983	1.68977E-001	1.16311E-006	0.00000E+000	1.68991E-001	0.00000E+000	9	...........	1467.52
	70	1.01412	1.69977E-001	1.20350E-006	0.00000E+000	1.69991E-001	0.00000E+000	9	...........	1467.52
	71	1.0284	1.70971E-001	1.24033E-006	0.00000E+000	1.70991E-001	0.00000E+000	9	...........	1467.52
	72	1.04268	1.71971E-001	1.24295E-006	0.00000E+000	1.71990E-001	0.00000E+000	9	...........	1467.52
	73	1.05697	1.72976E-001	1.26540E-006	0.00000E+000	1.72990E-001	0.00000E+000	9	...........	1467.52
	74	1.07125	1.73968E-001	1.31128E-006	0.00000E+000	1.73990E-001	0.00000E+000	9	...........	1467.52
	75	1.08553	1.74963E-001	1.33338E-006	0.00000E+000	1.74989E-001	0.00000E+000	9	...........	1467.52
	76	1.09982	1.75965E-001	1.33626E-006	0.00000E+000	1.75989E-001	0.00000E+000	9	...........	1467.69
	77	1.1141	1.76949E-001	1.37634E-006	0.00000E+000	1.76989E-001	0.00000E+000	9	...........	1467.70
	78	1.12838	1.77948E-001	1.41399E-006	0.00000E+000	1.77988E-001	0.00000E+000	9	...........	1467.70
	79	1.14267	1.78948E-001	1.41500E-006	0.00000E+000	1.78988E-001	0.00000E+000	9	...........	1467.70
	80	1.15695	1.79959E-001	1.43812E-006	0.00000E+000	1.79988E-001	0.00000E+000	9	...........	1467.70
	81	1.17123	1.80974E-001	1.48303E-006	0.00000E+000	1.80987E-001	0.00000E+000	9	...........	1467.70
	82	1.18552	1.81970E-001	1.50673E-006	0.00000E+000	1.81987E-001	0.00000E+000	9	...........	1467.70
	83	1.1998	1.82961E-001	1.50961E-006	0.00000E+000	1.82987E-001	0.00000E+000	9	...........	1467.70
	84	1.21408	1.83962E-001	1.54684E-006	0.00000E+000	1.83986E-001	0.00000E+000	9	...........	1467.70
	85	1.22837	1.84959E-001	1.59069E-006	0.00000E+000	1.84986E-001	0.00000E+000	9	...........	1467.70
	86	1.24265	1.85968E-001	1.58894E-006	0.00000E+000	1.85986E-001	0.00000E+000	9	...........	1467.70
	87	1.25693	1.86962E-001	1.60772E-006	0.00000E+000	1.86985E-001	0.00000E+000	9	...........	1467.70
	88	1.27122	1.87963E-001	1.65275E-006	0.00000E+000	1.87985E-001	0.00000E+000	9	...........	1467.70
	89	1.2855	1.88957E-001	1.67699E-006	0.00000E+000	1.88984E-001	0.00000E+000	9	...........	1467.70
	90	1.29978	1.89952E-001	1.67574E-006	0.00000E+000	1.89984E-001	0.00000E+000	9	...........	1467.70
	91	1.31407	1.90951E-001	1.71051E-006	0.00000E+000	1.90984E-001	0.00000E+000	9	...........	1467.70
	92	1.32835	1.91979E-001	1.74513E-006	0.00000E+000	1.91983E-001	0.00000E+000	9	...........	1467.70
	93	1.34263	1.92975E-001	1.75273E-006	0.00000E+000	1.92983E-001	0.00000E+000	9	...........	1467.70
	94	1.35692	1.93967E-001	1.76536E-006	0.00000E+000	1.93983E-001	0.00000E+000	9	...........	1467.70
	95	1.3712	1.94959E-001	1.80906E-006	0.00000E+000	1.94982E-001	0.00000E+000	9	...........	1467.70
	96	1.38548	1.95956E-001	1.83291E-006	0.00000E+000	1.95982E-001	0.00000E+000	9	...........	1467.70
	97	1.39977	1.96954E-001	1.83287E-006	0.00000E+000	1.96982E-001	0.00000E+000	9	...........	1467.70
	98	1.41405	1.97950E-001	1.86710E-006	0.00000E+000	1.97981E-001	0.00000E+000	9	...........	1467.70
	99	1.42833	1.98960E-001	1.90561E-006	0.00000E+000	1.98981E-001	0.00000E+000	9	...........	1467.70
	100	1.44262	1.99953E-001	1.90023E-006	0.00000E+000	1.99981E-001	0.00000E+000	9	...........	1467.70
	101	1.4569	2.00939E-001	1.92089E-006	0.00000E+000	2.00980E-001	0.00000E+000	9	...........	1467.70
	102	1.47118	2.01942E-001	1.96295E-006	0.00000E+000	2.01980E-001	0.00000E+000	9	...........	1467.70
	103	1.48547	2.02937E-001	1.98303E-006	0.00000E+000	2.02980E-001	0.00000E+000	9	...........	1467.70
	104	1.49975	2.03938E-001	1.98349E-006	0.00000E+000	2.03979E-001	0.00000E+000	9	...........	1467.70
	105	1.51403	2.04953E-001	2.01982E-006	0.00000E+000	2.04979E-001	0.00000E+000	9	...........	1467.70
	106	1.52832	2.05947E-001	2.05682E-006	0.00000E+000	2.05979E-001	0.00000E+000	9	...........	1467.70
	107	1.5426	2.06939E-001	2.06255E-006	0.00000E+000	2.06978E-001	0.00000E+000	9	...........	1467.70
	108	1.55688	2.07943E-001	2.07397E-006	0.00000E+000	2.07978E-001	0.00000E+000	9	...........	1467.70
	109	1.57117	2.08937E-001	2.11193E-006	0.00000E+000	2.08978E-001	0.00000E+000	9	...........	1467.70
	110	1.58545	2.09937E-001	2.13981E-006	0.00000E+000	2.09977E-001	0.00000E+000	9	...........	1467.70
	111	1.59973	2.10936E-001	2.13505E-006	0.00000E+000	2.10977E-001	0.00000E+000	9	...........	1467.70
	112	1.61402	2.11948E-001	2.17434E-006	0.00000E+000	2.11976E-001	0.00000E+000	9	...........	1467.70
	113	1.6283	2.12936E-001	2.20872E-006	0.00000E+000	2.12976E-001	0.00000E+000	9	...........	1467.70
	114	1.64258	2.13922E-001	2.21328E-006	0.00000E+000	2.13976E-001	0.00000E+000	9	...........	1467.70
	115	1.65687	2.14929E-001	2.22794E-006	0.00000E+000	2.14975E-001	0.00000E+000	9	...........	1467.70
	116	1.67115	2.15927E-001	2.26123E-006	0.00000E+000	2.15975E-001	0.00000E+000	9	...........	1467.70
	117	1.68543	2.16929E-001	2.28891E-006	0.00000E+000	2.16975E-001	0.00000E+000	9	...........	1467.70
	118	1.69972	2.17958E-001	2.28754E-006	0.00000E+000	2.17974E-001	0.00000E+000	9	...........	1467.70
	119	1.714	2.18938E-001	2.31841E-006	0.00000E+000	2.18974E-001	0.00000E+000	9	...........	1467.70
	120	1.72828	2.19935E-001	2.35587E-006	0.00000E+000	2.19974E-001	0.00000E+000	9	...........	1467.70
	121	1.74257	2.20953E-001	2.37205E-006	0.00000E+000	2.20986E-001	0.00000E+000	9	...........	1467.70
	122	1.75685	2.21960E-001	2.37700E-006	0.00000E+000	2.21985E-001	0.00000E+000	9	...........	1467.70
	123	1.77113	2.22951E-001	2.41851E-006	0.00000E+000	2.22985E-001	0.00000E+000	9	...........	1467.70
	124	1.78542	2.23961E-001	2.43699E-006	0.00000E+000	2.23985E-001	0.00000E+000	9	...........	1467.70
	125	1.7997	2.24942E-001	2.43282E-006	0.00000E+000	2.24984E-001	0.00000E+000	9	...........	1467.70
	126	1.81398	2.25943E-001	2.46342E-006	0.00000E+000	2.25984E-001	0.00000E+000	9	...........	1467.70
	127	1.82827	2.26941E-001	2.50708E-006	0.00000E+000	2.26984E-001	0.00000E+000	9	...........	1467.70
	128	1.84255	2.27951E-001	2.50482E-006	0.00000E+000	2.27983E-001	0.00000E+000	9	...........	1467.70
	129	1.85683	2.28952E-001	2.51686E-006	0.00000E+000	2.28983E-001	0.00000E+000	9	...........	1467.70
	130	1.87112	2.29946E-001	2.56200E-006	0.00000E+000	2.29983E-001	0.00000E+000	9	...........	1467.70
	131	1.8854	2.30951E-001	2.58083E-006	0.00000E+000	2.30982E-001	0.00000E+000	9	...........	1467.70
	132	1.89968	2.31948E-001	2.57631E-006	0.00000E+000	2.31982E-001	0.00000E+000	9	...........	1467.70
	133	1.91397	2.32948E-001	2.61135E-006	0.00000E+000	2.32982E-001	0.00000E+000	9	...........	1467.70
	134	1.92825	2.33951E-001	2.64608E-006	0.00000E+000	2.33981E-001	0.00000E+000	9	...........	1467.70
	135	1.94253	2.34946E-001	2.64538E-006	0.00000E+000	2.34981E-001	0.00000E+000	9	...........	1467.70
	136	1.95682	2.35938E-001	2.66167E-006	0.00000E+000	2.35981E-001	0.00000E+000	9	...........	1467.70
	137	1.9711	2.36948E-001	2.70420E-006	0.00000E+000	2.36980E-001	0.00000E+000	9	...........	1467.70
	138	1.98538	2.37944E-001	2.72096E-006	0.00000E+000	2.37980E-001	0.00000E+000	9	...........	1467.70
	139	1.99967	2.38942E-001	2.72096E-006	0.00000E+000	2.38980E-001	0.00000E+000	9	...........	1467.70
	140	2.01395	2.39944E-001	2.75515E-006	0.00000E+000	2.39979E-001	0.00000E+000	9	...........	1467.70
	141	2.02823	2.40936E-001	2.79019E-006	0.00000E+000	2.40979E-001	0.00000E+000	9	...........	1467.70
	142	2.04252	2.41938E-001	2.79386E-006	0.00000E+000	2.41979E-001	0.00000E+000	9	...........	1467.70
	143	2.0568	2.42939E-001	2.80801E-006	0.00000E+000	2.42978E-001	0.00000E+000	9	...........	1467.70
	144	2.07108	2.43954E-001	2.83670E-006	0.00000E+000	2.43978E-001	0.00000E+000	9	...........	1467.70
	145	2.08537	2.44955E-001	2.86047E-006	0.00000E+000	2.44977E-001	0.00000E+000	9	...........	1467.70
	146	2.09965	2.45954E-001	2.86761E-006	0.00000E+000	2.45977E-001	0.00000E+000	9	...........	1467.52
	147	2.11393	2.46949E-001	2.89415E-006	0.00000E+000	2.46977E-001	0.00000E+000	9	...........	1467.52
	148	2.12822	2.47951E-001	2.93115E-006	0.00000E+000	2.47976E-001	0.00000E+000	9	...........	1467.52
	149	2.1425	2.48943E-001	2.93621E-006	0.00000E+000	2.48976E-001	0.00000E+000	9	...........	1467.52
	150	2.15678	2.49948E-001	2.94600E-006	0.00000E+000	2.49976E-001	0.00000E+000	9	...........	1467.52
	151	2.17107	2.50941E-001	2.98186E-006	0.00000E+000	2.50975E-001	0.00000E+000	9	...........	1467.52
	152	2.18535	2.51935E-001	3.00992E-006	0.00000E+000	2.51975E-001	0.00000E+000	9	...........	1467.52
	153	2.19963	2.52928E-001	3.00525E-006	0.00000E+000	2.52975E-001	0.00000E+000	9	...........	1467.52
	154	2.21392	2.53923E-001	3.03698E-006	0.00000E+000	2.53974E-001	0.00000E+000	9	...........	1467.52
	155	2.2282	2.54921E-001	3.07787E-006	0.00000E+000	2.54974E-001	0.00000E+000	9	...........	1467.52
	156	2.24248	2.55927E-001	3.08173E-006	0.00000E+000	2.55974E-001	0.00000E+000	9	...........	1467.52
	157	2.25677	2.56942E-001	3.09393E-006	0.00000E+000	2.56973E-001	0.00000E+000	9	...........	1467.52
	158	2.27105	2.57938E-001	3.12815E-006	0.00000E+000	2.57973E-001	0.00000E+000	9	...........	1467.52
	159	2.28533	2.58937E-001	3.15922E-006	0.00000E+000	2.58973E-001	0.00000E+000	9	...........	1467.52
	160	2.29962	2.59936E-001	3.15567E-006	0.00000E+000	2.59972E-001	0.00000E+000	9	...........	1467.52
	161	2.3139	2.60932E-001	3.18580E-006	0.00000E+000	2.60972E-001	0.00000E+000	9	...........	1467.52
	162	2.32818	2.61927E-001	3.22864E-006	0.00000E+000	2.61972E-001	0.00000E+000	9	...........	1467.52
	163	2.34247	2.62940E-001	3.23110E-006	0.00000E+000	2.62971E-001	0.00000E+000	9	...........	1467.52
	164	2.35675	2.63927E-001	3.24073E-006	0.00000E+000	2.63971E-001	0.00000E+000	9	...........	1467.52
	165	2.37103	2.64918E-001	3.27920E-006	0.00000E+000	2.64970E-001	0.00000E+000	9	...........	1467.52
	166	2.38532	2.65924E-001	3.31074E-006	0.00000E+000	2.65970E-001	0.00000E+000	9	...........	1467.52
	167	2.3996	2.66910E-001	3.31093E-006	0.00000E+000	2.66970E-001	0.00000E+000	9	...........	1467.52
	168	2.41388	2.67914E-001	3.33354E-006	0.00000E+000	2.67969E-001	0.00000E+000	9	...........	1467.52
	169	2.42817	2.68947E-001	3.37720E-006	0.00000E+000	2.68969E-001	0.00000E+000	9	...........	1467.52
	170	2.44245	2.69947E-001	3.38889E-006	0.00000E+000	2.69969E-001	0.00000E+000	9	...........	1467.52
	171	2.45673	2.70947E-001	3.40148E-006	0.00000E+000	2.70968E-001	0.00000E+000	9	...........	1467.52
	172	2.47102	2.71936E-001	3.43013E-006	0.00000E+000	2.71968E-001	0.00000E+000	9	...........	1467.52
	173	2.4853	2.72940E-001	3.46510E-006	0.00000E+000	2.72968E-001	0.00000E+000	9	...........	1467.52
	174	2.49958	2.73929E-001	3.45851E-006	0.00000E+000	2.73967E-001	0.00000E+000	9	...........	1467.52
	175	2.51387	2.74930E-001	3.49207E-006	0.00000E+000	2.74967E-001	0.00000E+000	9	...........	1467.52
	176	2.52815	2.75942E-001	3.53090E-006	0.00000E+000	2.75967E-001	0.00000E+000	9	...........	1467.52
	177	2.54243	2.76941E-001	3.53990E-006	0.00000E+000	2.76966E-001	0.00000E+000	9	...........	1467.52
	178	2.55672	2.77927E-001	3.55401E-006	0.00000E+000	2.77966E-001	0.00000E+000	9	...........	1467.52
	179	2.571	2.78921E-001	3.59342E-006	0.00000E+000	2.78966E-001	0.00000E+000	9	...........	1467.52
	180	2.58528	2.79919E-001	3.62429E-006	0.00000E+000	2.79965E-001	0.00000E+000	9	...........	1467.52
	181	2.59957	2.80919E-001	3.62386E-006	0.00000E+000	2.80965E-001	0.00000E+000	9	...........	1467.52
	182	2.61385	2.81926E-001	3.64990E-006	0.00000E+000	2.81965E-001	0.00000E+000	9	...........	1467.52
	183	2.62813	2.82927E-001	3.69426E-006	0.00000E+000	2.82964E-001	0.00000E+000	9	...........	1467.52
	184	2.64242	2.83942E-001	3.70526E-006	0.00000E+000	2.83964E-001	0.00000E+000	9	...........	1467.52
	185	2.6567	2.84943E-001	3.72326E-006	0.00000E+000	2.84963E-001	0.00000E+000	9	...........	1467.52
	186	2.67098	2.85938E-001	3.76119E-006	0.00000E+000	2.85963E-001	0.00000E+000	9	...........	1467.52
	187	2.68527	2.86929E-001	3.79717E-006	0.00000E+000	2.86963E-001	0.00000E+000	9	...........	1467.52
	188	2.69955	2.87937E-001	3.79074E-006	0.00000E+000	2.87962E-001	0.00000E+000	9	...........	1467.52
	189	2.71383	2.88936E-001	3.82477E-006	0.00000E+000	2.88962E-001	0.00000E+000	9	...........	1467.52
	190	2.72812	2.89941E-001	3.88823E-006	0.00000E+000	2.89974E-001	0.00000E+000	9	...........	1467.52
	191	2.7424	2.90925E-001	3.88242E-006	0.00000E+000	2.90974E-001	0.00000E+000	9	...........	1467.52
	192	2.75668	2.91933E-001	3.89579E-006	0.00000E+000	2.91974E-001	0.00000E+000	9	...........	1467.52
	193	2.77097	2.92929E-001	3.93512E-006	0.00000E+000	2.92973E-001	0.00000E+000	9	...........	1467.52
	194	2.78525	2.93929E-001	3.96709E-006	0.00000E+000	2.93973E-001	0.00000E+000	9	...........	1467.52
	195	2.79953	2.94959E-001	3.97083E-006	0.00000E+000	2.94973E-001	0.00000E+000	9	...........	1467.52
	196	2.81382	2.95955E-001	4.00283E-006	0.00000E+000	2.95972E-001	0.00000E+000	9	...........	1467.52
	197	2.8281	2.96941E-001	4.05047E-006	0.00000E+000	2.96972E-001	0.00000E+000	9	...........	1467.52
	198	2.84238	2.97945E-001	4.05807E-006	0.00000E+000	2.97971E-001	0.00000E+000	9	...........	1467.52
	199	2.85667	2.98938E-001	4.07611E-006	0.00000E+000	2.98971E-001	0.00000E+000	9	...........	1467.52
	200	2.87095	2.99941E-001	4.11888E-006	0.00000E+000	2.99971E-001	0.00000E+000	9	...........	1467.52
	201	2.88523	2.98970E-001	1.96588E-006	0.00000E+000	2.98971E-001	0.00000E+000	9	...........	1467.52
	202	2.89952	2.97981E-001	1.71784E-006	0.00000E+000	2.97971E-001	0.00000E+000	9	...........	1467.52
	203	2.9138	2.96974E-001	1.56660E-006	0.00000E+000	2.96972E-001	0.00000E+000	9	...........	1467.52
	204	2.92808	2.95985E-001	1.45913E-006	0.00000E+000	2.95972E-001	0.00000E+000	9	...........	1467.52
	205	2.94237	2.94997E-001	1.34570E-006	0.00000E+000	2.94973E-001	0.00000E+000	9	...........	1467.52
	206	2.95665	2.93961E-001	1.23172E-006	0.00000E+000	2.93973E-001	0.00000E+000	9	...........	1467.52
	207	2.97093	2.92966E-001	1.16241E-006	0.00000E+000	2.92973E-001	0.00000E+000	9	...........	1467.52
	208	2.98522	2.91964E-001	1.09084E-006	0.00000E+000	2.91974E-001	0.00000E+000	9	...........	1467.52
	209	2.9995	2.90964E-001	1.00322E-006	0.00000E+000	2.90974E-001	0.00000E+000	9	...........	1467.52
	210	3.01378	2.89972E-001	9.28686E-007	0.00000E+000	2.89974E-001	0.00000E+000	9	...........	1467.52
	211	3.02807	2.88968E-001	8.77778E-007	0.00000E+000	2.88962E-001	0.00000E+000	9	...........	1467.52
	212	3.04235	2.87967E-001	8.18879E-007	0.00000E+000	2.87962E-001	0.00000E+000	9	...........	1467.52
	213	3.05663	2.86964E-001	7.49533E-007	0.00000E+000	2.86963E-001	0.00000E+000	9	...........	1467.52
	214	3.07092	2.85965E-001	7.07239E-007	0.00000E+000	2.85963E-001	0.00000E+000	9	...........	1467.52
	215	3.0852	2.84969E-001	6.65218E-007	0.00000E+000	2.84963E-001	0.00000E+000	9	...........	1467.52
	216	3.09948	2.83976E-001	5.90805E-007	0.00000E+000	2.83964E-001	0.00000E+000	9	...........	1467.52
	217	3.11377	2.82963E-001	5.44730E-007	0.00000E+000	2.82964E-001	0.00000E+000	9	...........	1467.52
	218	3.12805	2.81963E-001	5.21537E-007	0.00000E+000	2.81965E-001	0.00000E+000	9	...........	1467.52
	219	3.14233	2.80951E-001	4.58739E-007	0.00000E+000	2.80965E-001	0.00000E+000	9	...........	1467.52
	220	3.15662	2.79952E-001	3.99294E-007	0.00000E+000	2.79965E-001	0.00000E+000	9	...........	1467.52
	221	3.1709	2.78953E-001	3.71696E-007	0.00000E+000	2.78966E-001	0.00000E+000	9	...........	1467.52
	222	3.18518	2.77960E-001	3.40707E-007	0.00000E+000	2.77966E-001	0.00000E+000	9	...........	1467.52
	223	3.19947	2.76966E-001	2.76584E-007	0.00000E+000	2.76966E-001	0.00000E+000	9	...........	1467.52
	224	3.21375	2.75966E-001	2.37097E-007	0.00000E+000	2.75967E-001	0.00000E+000	9	...........	1467.52
	225	3.22803	2.74953E-001	2.31523E-007	0.00000E+000	2.74967E-001	0.00000E+000	9	...........	1467.52
	226	3.24232	2.73961E-001	1.77613E-007	0.00000E+000	2.73967E-001	0.00000E+000	9	...........	1467.52
	227	3.2566	2.72962E-001	1.24249E-007	0.00000E+000	2.72968E-001	0.00000E+000	9	...........	1467.52
	228	3.27088	2.71967E-001	1.07760E-007	0.00000E+000	2.71968E-001	0.00000E+000	9	...........	1467.52
	229	3.28517	2.70979E-001	8.03181E-008	0.00000E+000	2.70968E-001	0.00000E+000	9	...........	1467.52
	230	3.29945	2.69982E-001	2.27052E-008	0.00000E+000	2.69969E-001	0.00000E+000	9	...........	1467.52
	231	3.31373	2.68984E-001	-9.14174E-009	0.00000E+000	2.68969E-001	0.00000E+000	9	...........	1467.52
	232	3.32802	2.67947E-001	-1.54955E-008	0.00000E+000	2.67969E-001	0.00000E+000	9	...........	1467.52
	233	3.3423	2.66950E-001	-5.90365E-008	0.00000E+000	2.66970E-001	0.00000E+000	9	...........	1467.52
	234	3.35658	2.65963E-001	-1.12323E-007	0.00000E+000	2.65970E-001	0.00000E+000	9	...........	1467.52
	235	3.37087	2.64965E-001	-1.26512E-007	0.00000E+000	2.64970E-001	0.00000E+000	9	...........	1467.52
	236	3.38515	2.63961E-001	-1.44131E-007	0.00000E+000	2.63971E-001	0.00000E+000	9	...........	1467.52
	237	3.39943	2.62963E-001	-1.96364E-007	0.00000E+000	2.62971E-001	0.00000E+000	9	...........	1467.52
	238	3.41372	2.61960E-001	-2.26886E-007	0.00000E+000	2.61972E-001	0.00000E+000	9	...........	1467.52
	239	3.428	2.60961E-001	-2.28523E-007	0.00000E+000	2.60972E-001	0.00000E+000	9	...........	1467.52
	240	3.44228	2.59962E-001	-2.77249E-007	0.00000E+000	2.59972E-001	0.00000E+000	9	...........	1467.52
	241	3.45657	2.58965E-001	-3.15605E-007	0.00000E+000	2.58973E-001	0.00000E+000	9	...........	1467.52
	242	3.47085	2.57968E-001	-3.34783E-007	0.00000E+000	2.57973E-001	0.00000E+000	9	...........	1467.52
	243	3.48513	2.56968E-001	-3.50882E-007	0.00000E+000	2.56973E-001	0.00000E+000	9	...........	1467.52
	244	3.49942	2.55961E-001	-3.93800E-007	0.00000E+000	2.55974E-001	0.00000E+000	9	...........	1467.52
	245	3.5137	2.54944E-001	-4.28726E-007	0.00000E+000	2.54974E-001	0.00000E+000	9	...........	1467.52
	246	3.52798	2.53945E-001	-4.24828E-007	0.00000E+000	2.53974E-001	0.00000E+000	9	...........	1467.52
	247	3.54227	2.52950E-001	-4.61236E-007	0.00000E+000	2.52975E-001	0.00000E+000	9	...........	1467.52
	248	3.55655	2.51965E-001	-5.09026E-007	0.00000E+000	2.51975E-001	0.00000E+000	9	...........	1467.52
	249	3.57083	2.50965E-001	-5.13547E-007	0.00000E+000	2.50975E-001	0.00000E+000	9	...........	1467.52
	250	3.58512	2.49968E-001	-5.29412E-007	0.00000E+000	2.49976E-001	0.00000E+000	9	...........	1467.52
	251	3.5994	2.48967E-001	-5.85232E-007	0.00000E+000	2.48976E-001	0.00000E+000	9	...........	1467.52
	252	3.61368	2.47974E-001	-6.10414E-007	0.00000E+000	2.47976E-001	0.00000E+000	9	...........	1467.52
	253	3.62797	2.46974E-001	-6.13844E-007	0.00000E+000	2.46977E-001	0.00000E+000	9	...........	1467.52
	254	3.64225	2.45979E-001	-6.51187E-007	0.00000E+000	2.45977E-001	0.00000E+000	9	...........	1467.52
	255	3.65653	2.44984E-001	-7.03927E-007	0.00000E+000	2.44977E-001	0.00000E+000	9	...........	1467.52
	256	3.67082	2.43986E-001	-6.98860E-007	0.00000E+000	2.43978E-001	0.00000E+000	9	...........	1467.52
	257	3.6851	2.42976E-001	-7.19597E-007	0.00000E+000	2.42978E-001	0.00000E+000	9	...........	1467.52
	258	3.69938	2.41968E-001	-7.59045E-007	0.00000E+000	2.41979E-001	0.00000E+000	9	...........	1467.52
	259	3.71367	2.40967E-001	-8.01651E-007	0.00000E+000	2.40979E-001	0.00000E+000	9	...........	1467.52
	260	3.72795	2.39974E-001	-7.93231E-007	0.00000E+000	2.39979E-001	0.00000E+000	9	...........	1467.52
	261	3.74223	2.38970E-001	-8.28664E-007	0.00000E+000	2.38980E-001	0.00000E+000	9	...........	1467.52
	262	3.75652	2.37968E-001	-8.67645E-007	0.00000E+000	2.37980E-001	0.00000E+000	9	...........	1467.52
	263	3.7708	2.36976E-001	-8.77351E-007	0.00000E+000	2.36980E-001	0.00000E+000	9	...........	1467.52
	264	3.78508	2.35968E-001	-8.90019E-007	0.00000E+000	2.35981E-001	0.00000E+000	9	...........	1467.52
	265	3.79937	2.34968E-001	-9.35276E-007	0.00000E+000	2.34981E-001	0.00000E+000	9	...........	1467.52
	266	3.81365	2.33981E-001	-9.70709E-007	0.00000E+000	2.33981E-001	0.00000E+000	9	...........	1467.52
	267	3.82793	2.32980E-001	-9.67668E-007	0.00000E+000	2.32982E-001	0.00000E+000	9	...........	1467.52
	268	3.84222	2.31988E-001	-1.00287E-006	0.00000E+000	2.31982E-001	0.00000E+000	9	...........	1467.52
	269	3.8565	2.30981E-001	-1.04142E-006	0.00000E+000	2.30982E-001	0.00000E+000	9	...........	1467.52
	270	3.87078	2.29973E-001	-1.05327E-006	0.00000E+000	2.29983E-001	0.00000E+000	9	...........	1467.52
	271	3.88507	2.28970E-001	-1.06278E-006	0.00000E+000	2.28983E-001	0.00000E+000	9	...........	1467.52
	272	3.89935	2.27977E-001	-1.10909E-006	0.00000E+000	2.27983E-001	0.00000E+000	9	...........	1467.52
	273	3.91363	2.26966E-001	-1.13938E-006	0.00000E+000	2.26984E-001	0.00000E+000	9	...........	1467.52
	274	3.92792	2.25971E-001	-1.13630E-006	0.00000E+000	2.25984E-001	0.00000E+000	9	...........	1467.52
	275	3.9422	2.24972E-001	-1.16830E-006	0.00000E+000	2.24984E-001	0.00000E+000	9	...........	1467.52
	276	3.95648	2.23987E-001	-1.20989E-006	0.00000E+000	2.23985E-001	0.00000E+000	9	...........	1467.52
	277	3.97077	2.22982E-001	-1.21703E-006	0.00000E+000	2.22985E-001	0.00000E+000	9	...........	1467.52
	278	3.98505	2.21978E-001	-1.23581E-006	0.00000E+000	2.21985E-001	0.00000E+000	9	...........	1467.52
	279	3.99933	2.20991E-001	-1.27261E-006	0.00000E+000	2.20986E-001	0.00000E+000	9	...........	1467.52
	280	4.01362	2.19968E-001	-1.31954E-006	0.00000E+000	2.19974E-001	0.00000E+000	9	...........	1467.52
	281	4.0279	2.18972E-001	-1.30228E-006	0.00000E+000	2.18974E-001	0.00000E+000	9	...........	1467.52
	282	4.04218	2.17986E-001	-1.32863E-006	0.00000E+000	2.17974E-001	0.00000E+000	9	...........	1467.52
	283	4.05647	2.16952E-001	-1.37416E-006	0.00000E+000	2.16975E-001	0.00000E+000	9	...........	1467.52
	284	4.07075	2.15958E-001	-1.38721E-006	0.00000E+000	2.15975E-001	0.00000E+000	9	...........	1467.52
	285	4.08503	2.14957E-001	-1.39407E-006	0.00000E+000	2.14975E-001	0.00000E+000	9	...........	1467.52
	286	4.09932	2.13951E-001	-1.43625E-006	0.00000E+000	2.13976E-001	0.00000E+000	9	...........	1467.52
	287	4.1136	2.12962E-001	-1.46860E-006	0.00000E+000	2.12976E-001	0.00000E+000	9	...........	1467.52
	288	4.12788	2.11975E-001	-1.46171E-006	0.00000E+000	2.11976E-001	0.00000E+000	9	...........	1467.52
	289	4.14217	2.10968E-001	-1.49570E-006	0.00000E+000	2.10977E-001	0.00000E+000	9	...........	1467.52
	290	4.15645	2.09967E-001	-1.53631E-006	0.00000E+000	2.09977E-001	0.00000E+000	9	...........	1467.52
	291	4.17073	2.08974E-001	-1.54859E-006	0.00000E+000	2.08978E-001	0.00000E+000	9	...........	1467.52
	292	4.18502	2.07974E-001	-1.55927E-006	0.00000E+000	2.07978E-001	0.00000E+000	9	...........	1467.52
	293	4.1993	2.06968E-001	-1.60375E-006	0.00000E+000	2.06978E-001	0.00000E+000	9	...........	1467.52
	294	4.21358	2.05983E-001	-1.62764E-006	0.00000E+000	2.05979E-001	0.00000E+000	9	...........	1467.52
	295	4.22787	2.04989E-001	-1.63224E-006	0.00000E+000	2.04979E-001	0.00000E+000	9	...........	1467.52
	296	4.24215	2.03974E-001	-1.65567E-006	0.00000E+000	2.03979E-001	0.00000E+000	9	...........	1467.52
	297	4.25643	2.02972E-001	-1.70494E-006	0.00000E+000	2.02980E-001	0.00000E+000	9	...........	1467.52
	298	4.27072	2.01976E-001	-1.71414E-006	0.00000E+000	2.01980E-001	0.00000E+000	9	...........	1467.52
	299	4.285	2.00971E-001	-1.72837E-006	0.00000E+000	2.00980E-001	0.00000E+000	9	...........	1467.52
	300	4.29928	1.99988E-001	-1.76832E-006	0.00000E+000	1.99981E-001	0.00000E+000	9	...........	1467.52
	301	4.31357	1.98991E-001	-1.79787E-006	0.00000E+000	1.98981E-001	0.00000E+000	9	...........	1467.52
	302	4.32785	1.97988E-001	-1.79791E-006	0.00000E+000	1.97981E-001	0.00000E+000	9	...........	1467.52
	303	4.34213	1.96993E-001	-1.83167E-006	0.00000E+000	1.96982E-001	0.00000E+000	9	...........	1467.52
	304	4.35642	1.96000E-001	-1.87197E-006	0.00000E+000	1.95982E-001	0.00000E+000	9	...........	1467.52
	305	4.3707	1.94998E-001	-1.88347E-006	0.00000E+000	1.94982E-001	0.00000E+000	9	...........	1467.52
	306	4.38498	1.94002E-001	-1.88788E-006	0.00000E+000	1.93983E-001	0.00000E+000	9	...........	1467.52
	307	4.39927	1.93007E-001	-1.92643E-006	0.00000E+000	1.92983E-001	0.00000E+000	9	...........	1467.52
	308	4.41355	1.92009E-001	-1.96217E-006	0.00000E+000	1.91983E-001	0.00000E+000	9	...........	1467.52
	309	4.42783	1.90976E-001	-1.97367E-006	0.00000E+000	1.90984E-001	0.00000E+000	9	...........	1467.52
	310	4.44212	1.89972E-001	-1.99885E-006	0.00000E+000	1.89984E-001	0.00000E+000	9	...........	1467.52
	311	4.4564	1.88982E-001	-2.04123E-006	0.00000E+000	1.88984E-001	0.00000E+000	9	...........	1467.52
	312	4.47068	1.87994E-001	-2.05483E-006	0.00000E+000	1.87985E-001	0.00000E+000	9	...........	1467.52
	313	4.48497	1.86990E-001	-2.06438E-006	0.00000E+000	1.86985E-001	0.00000E+000	9	...........	1467.52
	314	4.49925	1.85998E-001	-2.10675E-006	0.00000E+000	1.85986E-001	0.00000E+000	9	...........	1467.52
	315	4.51353	1.84989E-001	-2.14487E-006	0.00000E+000	1.84986E-001	0.00000E+000	9	...........	1467.52
	316	4.52782	1.83997E-001	-2.14830E-006	0.00000E+000	1.83986E-001	0.00000E+000	9	...........	1467.52
	317	4.5421	1.82993E-001	-2.17247E-006	0.00000E+000	1.82987E-001	0.00000E+000	9	...........	1467.52
	318	4.55638	1.81996E-001	-2.22112E-006	0.00000E+000	1.81987E-001	0.00000E+000	9	...........	1467.52
	319	4.57067	1.80998E-001	-2.23585E-006	0.00000E+000	1.80987E-001	0.00000E+000	9	...........	1467.52
	320	4.58495	1.79988E-001	-2.23843E-006	0.00000E+000	1.79988E-001	0.00000E+000	9	...........	1467.52
	321	4.59923	1.78972E-001	-2.28719E-006	0.00000E+000	1.78988E-001	0.00000E+000	9	...........	1467.52
	322	4.61352	1.77980E-001	-2.31912E-006	0.00000E+000	1.77988E-001	0.00000E+000	9	...........	1467.52
	323	4.6278	1.76977E-001	-2.32294E-006	0.00000E+000	1.76989E-001	0.00000E+000	9	...........	1467.52
	324	4.64208	1.75992E-001	-2.34714E-006	0.00000E+000	1.75989E-001	0.00000E+000	9	...........	1467.52
	325	4.65637	1.74987E-001	-2.39174E-006	0.00000E+000	1.74989E-001	0.00000E+000	9	...........	1467.52
	326	4.67065	1.73994E-001	-2.41107E-006	0.00000E+000	1.73990E-001	0.00000E+000	9	...........	1467.52
	327	4.68493	1.72996E-001	-2.41536E-006	0.00000E+000	1.72990E-001	0.00000E+000	9	...........	1467.52
	328	4.69922	1.71978E-001	-2.46085E-006	0.00000E+000	1.71990E-001	0.00000E+000	9	...........	1467.52
	329	4.7135	1.70981E-001	-2.49028E-006	0.00000E+000	1.70991E-001	0.00000E+000	9	...........	1467.52
	330	4.72778	1.69999E-001	-2.49765E-006	0.00000E+000	1.69991E-001	0.00000E+000	9	...........	1467.52
	331	4.74207	1.68996E-001	-2.52404E-006	0.00000E+000	1.68991E-001	0.00000E+000	9	...........	1467.52
	332	4.75635	1.67997E-001	-2.57120E-006	0.00000E+000	1.67992E-001	0.00000E+000	9	...........	1467.52
	333	4.77063	1.66999E-001	-2.58683E-006	0.00000E+000	1.66992E-001	0.00000E+000	9	...........	1467.52
	334	4.78492	1.65963E-001	-2.59584E-006	0.00000E+000	1.65993E-001	0.00000E+000	9	...........	1467.52
	335	4.7992	1.64972E-001	-2.64098E-006	0.00000E+000	1.64993E-001	0.00000E+000	9	...........	1467.52
	336	4.81348	1.63989E-001	-2.67251E-006	0.00000E+000	1.63993E-001	0.00000E+000	9	...........	1467.52
	337	4.82777	1.62992E-001	-2.68514E-006	0.00000E+000	1.62994E-001	0.00000E+000	9	...........	1467.52
	338	4.84205	1.62002E-001	-2.69801E-006	0.00000E+000	1.61994E-001	0.00000E+000	9	...........	1467.52
	339	4.85633	1.61001E-001	-2.75776E-006	0.00000E+000	1.60994E-001	0.00000E+000	9	...........	1467.52
	340	4.87062	1.60002E-001	-2.77020E-006	0.00000E+000	1.59995E-001	0.00000E+000	9	...........	1467.52
	341	4.8849	1.58999E-001	-2.77780E-006	0.00000E+000	1.58995E-001	0.00000E+000	9	...........	1467.52
	342	4.89918	1.58015E-001	-2.82793E-006	0.00000E+000	1.57995E-001	0.00000E+000	9	...........	1467.52
	343	4.91347	1.57027E-001	-2.85662E-006	0.00000E+000	1.56996E-001	0.00000E+000	9	...........	1467.52
	344	4.92775	1.56014E-001	-2.86769E-006	0.00000E+000	1.55996E-001	0.00000E+000	9	...........	1467.52
	345	4.94203	1.55016E-001	-2.88722E-006	0.00000E+000	1.54996E-001	0.00000E+000	9	...........	1467.52
	346	4.95632	1.54005E-001	-2.93953E-006	0.00000E+000	1.53997E-001	0.00000E+000	9	...........	1467.52
	347	4.9706	1.52993E-001	-2.95383E-006	0.00000E+000	1.52997E-001	0.00000E+000	9	...........	1467.52
	348	4.98488	1.51998E-001	-2.96260E-006	0.00000E+000	1.51997E-001	0.00000E+000	9	...........	1467.52
	349	4.99917	1.50989E-001	-3.02318E-006	0.00000E+000	1.50985E-001	0.00000E+000	9	...........	1467.52
	350	5.01345	1.49988E-001	-3.04458E-006	0.00000E+000	1.49986E-001	0.00000E+000	9	...........	1467.52
	351	5.02773	1.48993E-001	-3.05417E-006	0.00000E+000	1.48986E-001	0.00000E+000	9	...........	1467.52
	352	5.04202	1.47998E-001	-3.06692E-006	0.00000E+000	1.47986E-001	0.00000E+000	9	...........	1467.52
	353	5.0563	1.46997E-001	-3.11962E-006	0.00000E+000	1.46987E-001	0.00000E+000	9	...........	1467.52
	354	5.07058	1.45989E-001	-3.14534E-006	0.00000E+000	1.45987E-001	0.00000E+000	9	...........	1467.52
	355	5.08487	1.44995E-001	-3.15326E-006	0.00000E+000	1.44987E-001	0.00000E+000	9	...........	1467.52
	356	5.09915	1.43997E-001	-3.18787E-006	0.00000E+000	1.43988E-001	0.00000E+000	9	...........	1467.52
	357	5.11343	1.43002E-001	-3.23332E-006	0.00000E+000	1.42988E-001	0.00000E+000	9	...........	1467.52
	358	5.12772	1.42010E-001	-3.23535E-006	0.00000E+000	1.41988E-001	0.00000E+000	9	...........	1467.52
	359	5.142	1.41011E-001	-3.25846E-006	0.00000E+000	1.40989E-001	0.00000E+000	9	...........	1467.52
	360	5.15628	1.39986E-001	-3.30540E-006	0.00000E+000	1.39989E-001	0.00000E+000	9	...........	1467.52
	361	5.17057	1.38998E-001	-3.32734E-006	0.00000E+000	1.38989E-001	0.00000E+000	9	...........	1467.52
	362	5.18485	1.37994E-001	-3.34153E-006	0.00000E+000	1.37990E-001	0.00000E+000	9	...........	1467.52
	363	5.19913	1.36990E-001	-3.37989E-006	0.00000E+000	1.36990E-001	0.00000E+000	9	...........	1467.52
	364	5.21342	1.35992E-001	-3.41754E-006	0.00000E+000	1.35991E-001	0.00000E+000	9	...........	1467.52
	365	5.2277	1.34995E-001	-3.41879E-006	0.00000E+000	1.34991E-001	0.00000E+000	9	...........	1467.52
	366	5.24198	1.33990E-001	-3.44140E-006	0.00000E+000	1.33991E-001	0.00000E+000	9	...........	1467.52
	367	5.25627	1.33003E-001	-3.49585E-006	0.00000E+000	1.32992E-001	0.00000E+000	9	...........	1467.52
	368	5.27055	1.32003E-001	-3.52030E-006	0.00000E+000	1.31992E-001	0.00000E+000	9	...........	1467.52
	369	5.28483	1.31011E-001	-3.52318E-006	0.00000E+000	1.30992E-001	0.00000E+000	9	...........	1467.52
	370	5.29912	1.30004E-001	-3.56867E-006	0.00000E+000	1.29993E-001	0.00000E+000	9	...........	1467.52
	371	5.3134	1.29003E-001	-3.60247E-006	0.00000E+000	1.28993E-001	0.00000E+000	9	...........	1467.52
	372	5.32768	1.28003E-001	-3.62001E-006	0.00000E+000	1.27993E-001	0.00000E+000	9	...........	1467.52
	373	5.34197	1.26991E-001	-3.63365E-006	0.00000E+000	1.26994E-001	0.00000E+000	9	...........	1467.52
	374	5.35625	1.25991E-001	-3.68596E-006	0.00000E+000	1.25994E-001	0.00000E+000	9	...........	1467.52
	375	5.37053	1.25001E-001	-3.70475E-006	0.00000E+000	1.24994E-001	0.00000E+000	9	...........	1467.52
[...]
	1007	14.3976	2.92965E-001	1.13996E-006	0.00000E+000	2.92973E-001	0.00000E+000	9	...........	1467.52
	1008	14.4119	2.91966E-001	1.06944E-006	0.00000E+000	2.91974E-001	0.00000E+000	9	...........	1467.52
	1009	14.4262	2.90961E-001	9.67394E-007	0.00000E+000	2.90974E-001	0.00000E+000	9	...........	1467.52
	1010	14.4405	2.89977E-001	9.10404E-007	0.00000E+000	2.89974E-001	0.00000E+000	9	...........	1467.52
	1011	14.4547	2.88968E-001	8.47529E-007	0.00000E+000	2.88962E-001	0.00000E+000	9	...........	1467.52
	1012	14.469	2.87972E-001	7.86993E-007	0.00000E+000	2.87962E-001	0.00000E+000	9	...........	1467.52
	1013	14.4833	2.86965E-001	7.24468E-007	0.00000E+000	2.86963E-001	0.00000E+000	9	...........	1467.52
	1014	14.4976	2.85966E-001	6.81317E-007	0.00000E+000	2.85963E-001	0.00000E+000	9	...........	1467.52
	1015	14.5119	2.84969E-001	6.45260E-007	0.00000E+000	2.84963E-001	0.00000E+000	9	...........	1467.52
	1016	14.5262	2.83976E-001	5.66949E-007	0.00000E+000	2.83964E-001	0.00000E+000	9	...........	1467.52
	1017	14.5404	2.82965E-001	5.24733E-007	0.00000E+000	2.82964E-001	0.00000E+000	9	...........	1467.52
	1018	14.5547	2.81960E-001	4.98499E-007	0.00000E+000	2.81965E-001	0.00000E+000	9	...........	1467.52
	1019	14.569	2.80945E-001	4.32272E-007	0.00000E+000	2.80965E-001	0.00000E+000	9	...........	1467.52
	1020	14.5833	2.79945E-001	3.84677E-007	0.00000E+000	2.79965E-001	0.00000E+000	9	...........	1467.52
	1021	14.5976	2.78948E-001	3.53999E-007	0.00000E+000	2.78966E-001	0.00000E+000	9	...........	1467.52
	1022	14.6119	2.77961E-001	3.17124E-007	0.00000E+000	2.77966E-001	0.00000E+000	9	...........	1467.52
	1023	14.6261	2.76961E-001	2.55106E-007	0.00000E+000	2.76966E-001	0.00000E+000	9	...........	1467.52
	1024	14.6404	2.75965E-001	2.21037E-007	0.00000E+000	2.75967E-001	0.00000E+000	9	...........	1467.52
	1025	14.6547	2.74959E-001	2.06653E-007	0.00000E+000	2.74967E-001	0.00000E+000	9	...........	1467.52
	1026	14.669	2.73966E-001	1.53679E-007	0.00000E+000	2.73967E-001	0.00000E+000	9	...........	1467.52
	1027	14.6833	2.72968E-001	1.07254E-007	0.00000E+000	2.72968E-001	0.00000E+000	9	...........	1467.52
	1028	14.6976	2.71969E-001	8.91277E-008	0.00000E+000	2.71968E-001	0.00000E+000	9	...........	1467.52
	1029	14.7118	2.70976E-001	6.28549E-008	0.00000E+000	2.70968E-001	0.00000E+000	9	...........	1467.52
	1030	14.7261	2.69985E-001	4.65730E-009	0.00000E+000	2.69969E-001	0.00000E+000	9	...........	1467.52
	1031	14.7404	2.68989E-001	-2.20053E-008	0.00000E+000	2.68969E-001	0.00000E+000	9	...........	1467.52
	1032	14.7547	2.67948E-001	-3.92736E-008	0.00000E+000	2.67969E-001	0.00000E+000	9	...........	1467.52
	1033	14.769	2.66954E-001	-8.71804E-008	0.00000E+000	2.66970E-001	0.00000E+000	9	...........	1467.52
	1034	14.7833	2.65965E-001	-1.26550E-007	0.00000E+000	2.65970E-001	0.00000E+000	9	...........	1467.52
	1035	14.7975	2.64959E-001	-1.38751E-007	0.00000E+000	2.64970E-001	0.00000E+000	9	...........	1467.52
	1036	14.8118	2.63962E-001	-1.68143E-007	0.00000E+000	2.63971E-001	0.00000E+000	9	...........	1467.52
	1037	14.8261	2.62969E-001	-2.18778E-007	0.00000E+000	2.62971E-001	0.00000E+000	9	...........	1467.52
	1038	14.8404	2.61961E-001	-2.38853E-007	0.00000E+000	2.61972E-001	0.00000E+000	9	...........	1467.52
	1039	14.8547	2.60967E-001	-2.51716E-007	0.00000E+000	2.60972E-001	0.00000E+000	9	...........	1467.52
	1040	14.869	2.59965E-001	-3.04574E-007	0.00000E+000	2.59972E-001	0.00000E+000	9	...........	1467.52
	1041	14.8832	2.58966E-001	-3.33302E-007	0.00000E+000	2.58973E-001	0.00000E+000	9	...........	1467.52
	1042	14.8975	2.57970E-001	-3.45698E-007	0.00000E+000	2.57973E-001	0.00000E+000	9	...........	1467.52
	1043	14.9118	2.56973E-001	-3.68229E-007	0.00000E+000	2.56973E-001	0.00000E+000	9	...........	1467.52
	1044	14.9261	2.55962E-001	-4.20813E-007	0.00000E+000	2.55974E-001	0.00000E+000	9	...........	1467.52
	1045	14.9404	2.54948E-001	-4.42486E-007	0.00000E+000	2.54974E-001	0.00000E+000	9	...........	1467.52
	1046	14.9547	2.53950E-001	-4.58312E-007	0.00000E+000	2.53974E-001	0.00000E+000	9	...........	1467.52
	1047	14.9689	2.52957E-001	-5.01230E-007	0.00000E+000	2.52975E-001	0.00000E+000	9	...........	1467.52
	1048	14.9832	2.51967E-001	-5.35104E-007	0.00000E+000	2.51975E-001	0.00000E+000	9	...........	1467.52
	1049	14.9975	2.50972E-001	-5.43952E-007	0.00000E+000	2.50975E-001	0.00000E+000	9	...........	1467.52
	1050	15.0118	2.49975E-001	-5.62429E-007	0.00000E+000	2.49976E-001	0.00000E+000	9	...........	1467.52
	1051	15.0261	2.48964E-001	-6.12830E-007	0.00000E+000	2.48976E-001	0.00000E+000	9	...........	1467.52
	1052	15.0404	2.47969E-001	-6.34153E-007	0.00000E+000	2.47976E-001	0.00000E+000	9	...........	1467.52
	1053	15.0546	2.46972E-001	-6.36257E-007	0.00000E+000	2.46977E-001	0.00000E+000	9	...........	1467.52
	1054	15.0689	2.45973E-001	-6.81514E-007	0.00000E+000	2.45977E-001	0.00000E+000	9	...........	1467.52
	1055	15.0832	2.44975E-001	-7.14257E-007	0.00000E+000	2.44977E-001	0.00000E+000	9	...........	1467.52
	1056	15.0975	2.43984E-001	-7.14530E-007	0.00000E+000	2.43978E-001	0.00000E+000	9	...........	1467.52
	1057	15.1118	2.42967E-001	-7.45480E-007	0.00000E+000	2.42978E-001	0.00000E+000	9	...........	1467.52
	1058	15.1261	2.41965E-001	-7.94050E-007	0.00000E+000	2.41979E-001	0.00000E+000	9	...........	1467.52
	1059	15.1403	2.40960E-001	-8.12994E-007	0.00000E+000	2.40979E-001	0.00000E+000	9	...........	1467.52
	1060	15.1546	2.39981E-001	-8.18296E-007	0.00000E+000	2.39979E-001	0.00000E+000	9	...........	1467.52
	1061	15.1689	2.38975E-001	-8.62188E-007	0.00000E+000	2.38980E-001	0.00000E+000	9	...........	1467.52
	1062	15.1832	2.37975E-001	-8.97893E-007	0.00000E+000	2.37980E-001	0.00000E+000	9	...........	1467.52
	1063	15.1975	2.36983E-001	-9.01051E-007	0.00000E+000	2.36980E-001	0.00000E+000	9	...........	1467.52
	1064	15.2118	2.35971E-001	-9.21749E-007	0.00000E+000	2.35981E-001	0.00000E+000	9	...........	1467.52
	1065	15.226	2.34980E-001	-9.69266E-007	0.00000E+000	2.34981E-001	0.00000E+000	9	...........	1467.52
	1066	15.2403	2.33987E-001	-9.87041E-007	0.00000E+000	2.33981E-001	0.00000E+000	9	...........	1467.52
	1067	15.2546	2.32983E-001	-1.00080E-006	0.00000E+000	2.32982E-001	0.00000E+000	9	...........	1467.52
	1068	15.2689	2.31988E-001	-1.03475E-006	0.00000E+000	2.31982E-001	0.00000E+000	9	...........	1467.52
	1069	15.2832	2.30984E-001	-1.06469E-006	0.00000E+000	2.30982E-001	0.00000E+000	9	...........	1467.52
	1070	15.2975	2.29966E-001	-1.07108E-006	0.00000E+000	2.29983E-001	0.00000E+000	9	...........	1467.52
	1071	15.3117	2.28973E-001	-1.09147E-006	0.00000E+000	2.28983E-001	0.00000E+000	9	...........	1467.52
	1072	15.326	2.27982E-001	-1.13501E-006	0.00000E+000	2.27983E-001	0.00000E+000	9	...........	1467.52
	1073	15.3403	2.26973E-001	-1.15099E-006	0.00000E+000	2.26984E-001	0.00000E+000	9	...........	1467.52
	1074	15.3546	2.25974E-001	-1.16078E-006	0.00000E+000	2.25984E-001	0.00000E+000	9	...........	1467.52
	1075	15.3689	2.24977E-001	-1.20428E-006	0.00000E+000	2.24984E-001	0.00000E+000	9	...........	1467.52
	1076	15.3832	2.23992E-001	-1.23340E-006	0.00000E+000	2.23985E-001	0.00000E+000	9	...........	1467.52
	1077	15.3974	2.22982E-001	-1.23691E-006	0.00000E+000	2.22985E-001	0.00000E+000	9	...........	1467.52
	1078	15.4117	2.21987E-001	-1.25211E-006	0.00000E+000	2.21985E-001	0.00000E+000	9	...........	1467.52
	1079	15.426	2.20992E-001	-1.30200E-006	0.00000E+000	2.20986E-001	0.00000E+000	9	...........	1467.52
	1080	15.4403	2.19974E-001	-1.32457E-006	0.00000E+000	2.19974E-001	0.00000E+000	9	...........	1467.52
	1081	15.4546	2.18971E-001	-1.32188E-006	0.00000E+000	2.18974E-001	0.00000E+000	9	...........	1467.52
	1082	15.4689	2.17981E-001	-1.35607E-006	0.00000E+000	2.17974E-001	0.00000E+000	9	...........	1467.52
	1083	15.4831	2.16959E-001	-1.39220E-006	0.00000E+000	2.16975E-001	0.00000E+000	9	...........	1467.52
	1084	15.4974	2.15959E-001	-1.40140E-006	0.00000E+000	2.15975E-001	0.00000E+000	9	...........	1467.52
	1085	15.5117	2.14962E-001	-1.42132E-006	0.00000E+000	2.14975E-001	0.00000E+000	9	...........	1467.52
	1086	15.526	2.13957E-001	-1.45940E-006	0.00000E+000	2.13976E-001	0.00000E+000	9	...........	1467.52
	1087	15.5403	2.12967E-001	-1.47913E-006	0.00000E+000	2.12976E-001	0.00000E+000	9	...........	1467.52
	1088	15.5546	2.11978E-001	-1.48038E-006	0.00000E+000	2.11976E-001	0.00000E+000	9	...........	1467.52
	1089	15.5688	2.10973E-001	-1.52750E-006	0.00000E+000	2.10977E-001	0.00000E+000	9	...........	1467.52
	1090	15.5831	2.09970E-001	-1.55413E-006	0.00000E+000	2.09977E-001	0.00000E+000	9	...........	1467.52
	1091	15.5974	2.08973E-001	-1.56321E-006	0.00000E+000	2.08978E-001	0.00000E+000	9	...........	1467.52
	1092	15.6117	2.07976E-001	-1.58056E-006	0.00000E+000	2.07978E-001	0.00000E+000	9	...........	1467.52
	1093	15.626	2.06967E-001	-1.62683E-006	0.00000E+000	2.06978E-001	0.00000E+000	9	...........	1467.52
	1094	15.6403	2.05979E-001	-1.63965E-006	0.00000E+000	2.05979E-001	0.00000E+000	9	...........	1467.52
	1095	15.6545	2.04981E-001	-1.64947E-006	0.00000E+000	2.04979E-001	0.00000E+000	9	...........	1467.52
	1096	15.6688	2.03972E-001	-1.69906E-006	0.00000E+000	2.03979E-001	0.00000E+000	9	...........	1467.52
	1097	15.6831	2.02975E-001	-1.72716E-006	0.00000E+000	2.02980E-001	0.00000E+000	9	...........	1467.52
	1098	15.6974	2.01982E-001	-1.73001E-006	0.00000E+000	2.01980E-001	0.00000E+000	9	...........	1467.52
	1099	15.7117	2.00975E-001	-1.75530E-006	0.00000E+000	2.00980E-001	0.00000E+000	9	...........	1467.52
	1100	15.726	1.99994E-001	-1.80232E-006	0.00000E+000	1.99981E-001	0.00000E+000	9	...........	1467.52
	1101	15.7402	1.99001E-001	-1.81202E-006	0.00000E+000	1.98981E-001	0.00000E+000	9	...........	1467.52
	1102	15.7545	1.97987E-001	-1.82231E-006	0.00000E+000	1.97981E-001	0.00000E+000	9	...........	1467.52
	1103	15.7688	1.96996E-001	-1.86500E-006	0.00000E+000	1.96982E-001	0.00000E+000	9	...........	1467.52
	1104	15.7831	1.95995E-001	-1.89754E-006	0.00000E+000	1.95982E-001	0.00000E+000	9	...........	1467.52
	1105	15.7974	1.94994E-001	-1.91146E-006	0.00000E+000	1.94982E-001	0.00000E+000	9	...........	1467.52
	1106	15.8117	1.94007E-001	-1.92370E-006	0.00000E+000	1.93983E-001	0.00000E+000	9	...........	1467.52
	1107	15.8259	1.93006E-001	-1.97278E-006	0.00000E+000	1.92983E-001	0.00000E+000	9	...........	1467.52
	1108	15.8402	1.92017E-001	-1.98778E-006	0.00000E+000	1.91983E-001	0.00000E+000	9	...........	1467.52
	1109	15.8545	1.90980E-001	-1.99383E-006	0.00000E+000	1.90984E-001	0.00000E+000	9	...........	1467.52
	1110	15.8688	1.89982E-001	-2.03631E-006	0.00000E+000	1.89984E-001	0.00000E+000	9	...........	1467.52
	1111	15.8831	1.88985E-001	-2.07370E-006	0.00000E+000	1.88984E-001	0.00000E+000	9	...........	1467.52
	1112	15.8974	1.87994E-001	-2.08079E-006	0.00000E+000	1.87985E-001	0.00000E+000	9	...........	1467.52
	1113	15.9116	1.86990E-001	-2.10422E-006	0.00000E+000	1.86985E-001	0.00000E+000	9	...........	1467.52
	1114	15.9259	1.85997E-001	-2.15283E-006	0.00000E+000	1.85986E-001	0.00000E+000	9	...........	1467.52
	1115	15.9402	1.84992E-001	-2.16764E-006	0.00000E+000	1.84986E-001	0.00000E+000	9	...........	1467.52
	1116	15.9545	1.83994E-001	-2.17777E-006	0.00000E+000	1.83986E-001	0.00000E+000	9	...........	1467.52
	1117	15.9688	1.82998E-001	-2.22015E-006	0.00000E+000	1.82987E-001	0.00000E+000	9	...........	1467.52
	1118	15.9831	1.81996E-001	-2.25686E-006	0.00000E+000	1.81987E-001	0.00000E+000	9	...........	1467.52
	1119	15.9973	1.81000E-001	-2.26291E-006	0.00000E+000	1.80987E-001	0.00000E+000	9	...........	1467.52
	1120	16.0116	1.79996E-001	-2.27674E-006	0.00000E+000	1.79988E-001	0.00000E+000	9	...........	1467.52
	1121	16.0259	1.78977E-001	-2.33522E-006	0.00000E+000	1.78988E-001	0.00000E+000	9	...........	1467.52
	1122	16.0402	1.77982E-001	-2.34851E-006	0.00000E+000	1.77988E-001	0.00000E+000	9	...........	1467.52
	1123	16.0545	1.76992E-001	-2.35365E-006	0.00000E+000	1.76989E-001	0.00000E+000	9	...........	1467.52
	1124	16.0688	1.75999E-001	-2.40289E-006	0.00000E+000	1.75989E-001	0.00000E+000	9	...........	1467.52
	1125	16.083	1.74985E-001	-2.43625E-006	0.00000E+000	1.74989E-001	0.00000E+000	9	...........	1467.70
	1126	16.0973	1.73988E-001	-2.44187E-006	0.00000E+000	1.73990E-001	0.00000E+000	9	...........	1467.79
	1127	16.1116	1.72993E-001	-2.45902E-006	0.00000E+000	1.72990E-001	0.00000E+000	9	...........	1467.79
	1128	16.1259	1.71990E-001	-2.51000E-006	0.00000E+000	1.71990E-001	0.00000E+000	9	...........	1467.79
	1129	16.1402	1.70988E-001	-2.52637E-006	0.00000E+000	1.70991E-001	0.00000E+000	9	...........	1467.79
	1130	16.1545	1.70004E-001	-2.53140E-006	0.00000E+000	1.69991E-001	0.00000E+000	9	...........	1467.79
	1131	16.1687	1.69000E-001	-2.58134E-006	0.00000E+000	1.68991E-001	0.00000E+000	9	...........	1467.79
	1132	16.183	1.68000E-001	-2.60847E-006	0.00000E+000	1.67992E-001	0.00000E+000	9	...........	1467.79
	1133	16.1973	1.67006E-001	-2.61899E-006	0.00000E+000	1.66992E-001	0.00000E+000	9	...........	1467.79
	1134	16.2116	1.65973E-001	-2.63704E-006	0.00000E+000	1.65993E-001	0.00000E+000	9	...........	1467.79
	1135	16.2259	1.64979E-001	-2.69052E-006	0.00000E+000	1.64993E-001	0.00000E+000	9	...........	1467.79
	1136	16.2402	1.63992E-001	-2.70697E-006	0.00000E+000	1.63993E-001	0.00000E+000	9	...........	1467.79
	1137	16.2544	1.62987E-001	-2.71180E-006	0.00000E+000	1.62994E-001	0.00000E+000	9	...........	1467.79
	1138	16.2687	1.61989E-001	-2.75180E-006	0.00000E+000	1.61994E-001	0.00000E+000	9	...........	1467.79
	1139	16.283	1.60994E-001	-2.79152E-006	0.00000E+000	1.60994E-001	0.00000E+000	9	...........	1467.79
	1140	16.2973	1.59992E-001	-2.80029E-006	0.00000E+000	1.59995E-001	0.00000E+000	9	...........	1467.79
	1141	16.3116	1.58987E-001	-2.81795E-006	0.00000E+000	1.58995E-001	0.00000E+000	9	...........	1467.79
	1142	16.3259	1.58002E-001	-2.87821E-006	0.00000E+000	1.57995E-001	0.00000E+000	9	...........	1467.79
	1143	16.3401	1.57008E-001	-2.89665E-006	0.00000E+000	1.56996E-001	0.00000E+000	9	...........	1467.79
	1144	16.3544	1.56003E-001	-2.90655E-006	0.00000E+000	1.55996E-001	0.00000E+000	9	...........	1467.79
	1145	16.3687	1.55005E-001	-2.95068E-006	0.00000E+000	1.54996E-001	0.00000E+000	9	...........	1467.79
	1146	16.383	1.53989E-001	-2.98287E-006	0.00000E+000	1.53997E-001	0.00000E+000	9	...........	1467.79
	1147	16.3973	1.52987E-001	-2.99776E-006	0.00000E+000	1.52997E-001	0.00000E+000	9	...........	1467.79
	1148	16.4116	1.51988E-001	-3.01488E-006	0.00000E+000	1.51997E-001	0.00000E+000	9	...........	1467.79
	1149	16.4258	1.50978E-001	-3.08255E-006	0.00000E+000	1.50985E-001	0.00000E+000	9	...........	1467.79
	1150	16.4401	1.49981E-001	-3.08625E-006	0.00000E+000	1.49986E-001	0.00000E+000	9	...........	1467.79
	1151	16.4544	1.48987E-001	-3.09619E-006	0.00000E+000	1.48986E-001	0.00000E+000	9	...........	1467.79
	1152	16.4687	1.47993E-001	-3.13256E-006	0.00000E+000	1.47986E-001	0.00000E+000	9	...........	1467.79
	1153	16.483	1.46998E-001	-3.16943E-006	0.00000E+000	1.46987E-001	0.00000E+000	9	...........	1467.79
	1154	16.4973	1.45995E-001	-3.18222E-006	0.00000E+000	1.45987E-001	0.00000E+000	9	...........	1467.79
	1155	16.5115	1.44994E-001	-3.19879E-006	0.00000E+000	1.44987E-001	0.00000E+000	9	...........	1467.79
	1156	16.5258	1.43995E-001	-3.25176E-006	0.00000E+000	1.43988E-001	0.00000E+000	9	...........	1467.79
	1157	16.5401	1.43002E-001	-3.26977E-006	0.00000E+000	1.42988E-001	0.00000E+000	9	...........	1467.79
	1158	16.5544	1.42002E-001	-3.27164E-006	0.00000E+000	1.41988E-001	0.00000E+000	9	...........	1467.79
	1159	16.5687	1.41009E-001	-3.31506E-006	0.00000E+000	1.40989E-001	0.00000E+000	9	...........	1467.79
	1160	16.583	1.39988E-001	-3.35482E-006	0.00000E+000	1.39989E-001	0.00000E+000	9	...........	1467.79
	1161	16.5972	1.38994E-001	-3.36484E-006	0.00000E+000	1.38989E-001	0.00000E+000	9	...........	1467.79
	1162	16.6115	1.37996E-001	-3.38792E-006	0.00000E+000	1.37990E-001	0.00000E+000	9	...........	1467.79
	1163	16.6258	1.36989E-001	-3.43754E-006	0.00000E+000	1.36990E-001	0.00000E+000	9	...........	1467.79
	1164	16.6401	1.35992E-001	-3.45539E-006	0.00000E+000	1.35991E-001	0.00000E+000	9	...........	1467.79
	1165	16.6544	1.34994E-001	-3.46366E-006	0.00000E+000	1.34991E-001	0.00000E+000	9	...........	1467.79
	1166	16.6687	1.33989E-001	-3.50369E-006	0.00000E+000	1.33991E-001	0.00000E+000	9	...........	1467.79
	1167	16.6829	1.33003E-001	-3.54263E-006	0.00000E+000	1.32992E-001	0.00000E+000	9	...........	1467.79
	1168	16.6972	1.32007E-001	-3.55530E-006	0.00000E+000	1.31992E-001	0.00000E+000	9	...........	1467.79
	1169	16.7115	1.31011E-001	-3.57163E-006	0.00000E+000	1.30992E-001	0.00000E+000	9	...........	1467.79
	1170	16.7258	1.30002E-001	-3.62164E-006	0.00000E+000	1.29993E-001	0.00000E+000	9	...........	1467.79
	1171	16.7401	1.29008E-001	-3.63724E-006	0.00000E+000	1.28993E-001	0.00000E+000	9	...........	1467.79
	1172	16.7544	1.28000E-001	-3.64874E-006	0.00000E+000	1.27993E-001	0.00000E+000	9	...........	1467.79
	1173	16.7686	1.26989E-001	-3.68557E-006	0.00000E+000	1.26994E-001	0.00000E+000	9	...........	1467.79
	1174	16.7829	1.25997E-001	-3.72868E-006	0.00000E+000	1.25994E-001	0.00000E+000	9	...........	1467.79
	1175	16.7972	1.25000E-001	-3.73703E-006	0.00000E+000	1.24994E-001	0.00000E+000	9	...........	1467.79
	1176	16.8115	1.24000E-001	-3.75270E-006	0.00000E+000	1.23995E-001	0.00000E+000	9	...........	1467.79
	1177	16.8258	1.22999E-001	-3.80735E-006	0.00000E+000	1.22995E-001	0.00000E+000	9	...........	1467.79
	1178	16.84	1.22011E-001	-3.82567E-006	0.00000E+000	1.21995E-001	0.00000E+000	9	...........	1467.79
	1179	16.8543	1.21003E-001	-3.84235E-006	0.00000E+000	1.20996E-001	0.00000E+000	9	...........	1467.79
	1180	16.8686	1.20006E-001	-3.87919E-006	0.00000E+000	1.19996E-001	0.00000E+000	9	...........	1467.79
	1181	16.8829	1.19008E-001	-3.91220E-006	0.00000E+000	1.18996E-001	0.00000E+000	9	...........	1467.79
	1182	16.8972	1.18001E-001	-3.92963E-006	0.00000E+000	1.17997E-001	0.00000E+000	9	...........	1467.79
	1183	16.9115	1.17006E-001	-3.94920E-006	0.00000E+000	1.16997E-001	0.00000E+000	9	...........	1467.79
	1184	16.9258	1.16012E-001	-3.99699E-006	0.00000E+000	1.15997E-001	0.00000E+000	9	...........	1467.79
	1185	16.94	1.15003E-001	-4.01819E-006	0.00000E+000	1.14998E-001	0.00000E+000	9	...........	1467.79
	1186	16.9543	1.13984E-001	-4.02252E-006	0.00000E+000	1.13998E-001	0.00000E+000	9	...........	1467.79
	1187	16.9686	1.12993E-001	-4.07370E-006	0.00000E+000	1.12999E-001	0.00000E+000	9	...........	1467.79
	1188	16.9829	1.11994E-001	-4.10714E-006	0.00000E+000	1.11999E-001	0.00000E+000	9	...........	1467.79
	1189	16.9972	1.10996E-001	-4.11950E-006	0.00000E+000	1.10999E-001	0.00000E+000	9	...........	1467.79
	1190	17.0114	1.10005E-001	-4.13969E-006	0.00000E+000	1.10000E-001	0.00000E+000	9	...........	1467.79
	1191	17.0257	1.09001E-001	-4.19512E-006	0.00000E+000	1.09000E-001	0.00000E+000	9	...........	1467.79
	1192	17.04	1.08001E-001	-4.21087E-006	0.00000E+000	1.08000E-001	0.00000E+000	9	...........	1467.79
	1193	17.0543	1.06999E-001	-4.21871E-006	0.00000E+000	1.07001E-001	0.00000E+000	9	...........	1467.79
	1194	17.0686	1.05998E-001	-4.26537E-006	0.00000E+000	1.06001E-001	0.00000E+000	9	...........	1467.79
	1195	17.0829	1.05000E-001	-4.30423E-006	0.00000E+000	1.05001E-001	0.00000E+000	9	...........	1467.61
	1196	17.0972	1.04018E-001	-4.31245E-006	0.00000E+000	1.04002E-001	0.00000E+000	9	...........	1467.52
	1197	17.1114	1.03022E-001	-4.33471E-006	0.00000E+000	1.03002E-001	0.00000E+000	9	...........	1467.52
	1198	17.1257	1.02000E-001	-4.38484E-006	0.00000E+000	1.02002E-001	0.00000E+000	9	...........	1467.52
	1199	17.14	1.01011E-001	-4.40928E-006	0.00000E+000	1.01003E-001	0.00000E+000	9	...........	1467.52
	1200	17.1543	1.00014E-001	-4.41996E-006	0.00000E+000	1.00003E-001	0.00000E+000	9	...........	1467.52
CURVE4	TABLE
	Pt	T	Vf	Im	Vu	Sig	Ach	IERange	Over	Temp
	#	s	V vs. Ref.	A	V	V	V	#	bits	deg C
	1201	17.1686	9.99959E-002	-3.38098E-006	0.00000E+000	1.00003E-001	0.00000E+000	9	...........	1467.52