File: input/ECSA_test/CV_ECSA_#1_#6.DTA
EXPLAIN
TAG	CV
TITLE	LABEL	ECSA	Test Identifier
DATE	LABEL	2/13/2024	Date
TIME	LABEL	8:49:35	Time
NOTES	NOTES	1	Notes...

PSTAT	PSTAT	IFC1010-36068	Potentiostat
VINIT	POTEN	1.00000E-001	F	Initial E (V)
VLIMIT1	POTEN	3.00000E-001	F	Scan Limit 1 (V)
VLIMIT2	POTEN	1.00000E-001	F	Scan Limit 2 (V)
VFINAL	POTEN	1.00000E-001	F	Final E (V)
SCANRATE	QUANT	5.99999E+001	A Real Number
STEPSIZE	QUANT	1.00000E+000	Step Size (mV)
CYCLES	IQUANT	3	Cycles (#)
IMODE	SELECTOR	1	I/E Range Mode
IRANGE	QUANT	3.00000E-001	Max Current (mA)
AREA	QUANT	1.00000E+000	Sample Area (cm^2)
EQDELAY	QUANT	0.00000E+000	Equil. Time (s)
IRCOMP	SELECTOR	0	IRComp
PFCOR	QUANT	5.00000E+001	PF Corr. (ohm)
SAMPLINGMODE	SELECTOR	2	Sampling Mode
EOC	QUANT	0.3246219	Open Circuit (V)
ELECTRODETYPE	SELECTOR	0	Electrode Type
STRIPPING	TOGGLE	F	Used for Stripping
SEQUENCER	TOGGLE	TRUE	Run as Sequence
PSTATMODEL	IQUANT	64	Pstat Model
PSTATSECTION	LABEL	IFC1010-36068	Pstat Section
PSTATSERIALNO	LABEL	36068	Pstat Serial Number
CTRLMODE	IQUANT	1	Control Mode
ELECTROMETER	IQUANT	0	RE=0 or CS=1
IESTAB	IQUANT	2	I/E Stability
CASPEED	IQUANT	4	Control Amp Speed
CONVENTION	IQUANT	1	Current Convention
ICHRANGE	IQUANT	2	Ich Range
ICHRANGEMODE	TOGGLE	F	Ich Auto Range
ICHOFFSETENABLE	TOGGLE	F	Ich Offset Enable
ICHOFFSET	QUANT	0	Ich Offset (V)
ICHFILTER	IQUANT	3	Ich Filter
VCHRANGE	IQUANT	2	Vch Range
VCHRANGEMODE	TOGGLE	F	Vch Auto Range
VCHOFFSETENABLE	TOGGLE	F	Vch Offset Enable
VCHOFFSET	QUANT	0	Vch Offset (V)
VCHFILTER	IQUANT	3	Vch Filter
IERANGELOWERLIMIT	IQUANT	4	I/E Range Lower Limit
IERANGEMODE	TOGGLE	F	I/E AutoRange
IERANGE	IQUANT	9	I/E Range
ACHSELECT	IQUANT	0	Ach Select
ACHRANGE	IQUANT	2	Ach Range
ACHOFFSETENABLE	TOGGLE	F	Ach Offset Enable
ACHOFFSET	QUANT	0	Ach Offset (V)
ACHFILTER	IQUANT	1	Ach Filter
SENSECABLEID	IQUANT	13	Sense Cable ID
PWRCABLEID	IQUANT	13	Power Cable ID
DCCALDATE	LABEL	8/11/2023	DC Calibration Date
ACCALDATE	LABEL	6/2/2023	AC Calibration Date
FRAMEWORKVERSION	LABEL	7.10.3	Framework Version
INSTRUMENTVERSION	LABEL	4.91	Instrument Version
COMMVERSION	LABEL	3.10	Communications Version
CPUPLDVERSION	LABEL	2.22	CPU PLD Version
CTRLPLDVERSION	LABEL	0.00	CTRL PLD Version
PSTATPLDVERSION	LABEL	0.00	PSTAT PLD Version
CURVE1	TABLE
	Pt	T	Vf	Im	Vu	Sig	Ach	IERange	Over	Temp
	#	s	V vs. Ref.	A	V	V	V	#	bits	deg C
	0	0.016667	9.99906E-002	-1.01764E-005	0.00000E+000	1.00003E-001	0.00000E+000	9	...........	1467.61
	1	0.033333	1.00971E-001	-9.07448E-006	0.00000E+000	1.01003E-001	0.00000E+000	9	...........	1467.61
	2	0.05	1.01964E-001	-8.81787E-006	0.00000E+000	1.02002E-001	0.00000E+000	9	...........	1467.61
	3	0.066667	1.02983E-001	-8.61713E-006	0.00000E+000	1.03002E-001	0.00000E+000	9	...........	1467.61
	4	0.083333	1.03982E-001	-8.43720E-006	0.00000E+000	1.04002E-001	0.00000E+000	9	...........	1467.61
	5	0.1	1.04963E-001	-8.25764E-006	0.00000E+000	1.05001E-001	0.00000E+000	9	...........	1467.61
	6	0.116667	1.05970E-001	-8.09187E-006	0.00000E+000	1.06001E-001	0.00000E+000	9	...........	1467.61
	7	0.133333	1.06970E-001	-7.93745E-006	0.00000E+000	1.07001E-001	0.00000E+000	9	...........	1467.61
	8	0.15	1.07972E-001	-7.79315E-006	0.00000E+000	1.08000E-001	0.00000E+000	9	...........	1467.61
	9	0.166667	1.08979E-001	-7.65613E-006	0.00000E+000	1.09000E-001	0.00000E+000	9	...........	1467.61
	10	0.183333	1.09974E-001	-7.51573E-006	0.00000E+000	1.10000E-001	0.00000E+000	9	...........	1467.61
	11	0.2	1.10968E-001	-7.37020E-006	0.00000E+000	1.10999E-001	0.00000E+000	9	...........	1467.61
	12	0.216667	1.11965E-001	-7.22830E-006	0.00000E+000	1.11999E-001	0.00000E+000	9	...........	1467.61
	13	0.233333	1.12966E-001	-7.09553E-006	0.00000E+000	1.12999E-001	0.00000E+000	9	...........	1467.61
	14	0.25	1.13962E-001	-6.97761E-006	0.00000E+000	1.13998E-001	0.00000E+000	9	...........	1467.61
	15	0.266667	1.14981E-001	-6.85572E-006	0.00000E+000	1.14998E-001	0.00000E+000	9	...........	1467.61
	16	0.283333	1.15992E-001	-6.73199E-006	0.00000E+000	1.15997E-001	0.00000E+000	9	...........	1467.61
	17	0.3	1.16980E-001	-6.60041E-006	0.00000E+000	1.16997E-001	0.00000E+000	9	...........	1467.61
	18	0.316667	1.17975E-001	-6.47648E-006	0.00000E+000	1.17997E-001	0.00000E+000	9	...........	1467.61
	19	0.333333	1.18983E-001	-6.35442E-006	0.00000E+000	1.18996E-001	0.00000E+000	9	...........	1467.61
	20	0.35	1.19981E-001	-6.24906E-006	0.00000E+000	1.19996E-001	0.00000E+000	9	...........	1467.61
	21	0.366667	1.20973E-001	-6.14824E-006	0.00000E+000	1.20996E-001	0.00000E+000	9	...........	1467.61
	22	0.383333	1.21975E-001	-6.03350E-006	0.00000E+000	1.21995E-001	0.00000E+000	9	...........	1467.61
	23	0.4	1.22960E-001	-5.91578E-006	0.00000E+000	1.22995E-001	0.00000E+000	9	...........	1467.61
	24	0.416667	1.23955E-001	-5.80094E-006	0.00000E+000	1.23995E-001	0.00000E+000	9	...........	1467.61
	25	0.433333	1.24966E-001	-5.69040E-006	0.00000E+000	1.24994E-001	0.00000E+000	9	...........	1467.61
	26	0.45	1.25958E-001	-5.59579E-006	0.00000E+000	1.25994E-001	0.00000E+000	9	...........	1467.61
	27	0.466667	1.26967E-001	-5.48428E-006	0.00000E+000	1.27006E-001	0.00000E+000	9	...........	1467.61
	28	0.483333	1.27982E-001	-5.39806E-006	0.00000E+000	1.28006E-001	0.00000E+000	9	...........	1467.61
	29	0.5	1.28985E-001	-5.29096E-006	0.00000E+000	1.29005E-001	0.00000E+000	9	...........	1467.61
	30	0.516667	1.29992E-001	-5.18824E-006	0.00000E+000	1.30005E-001	0.00000E+000	9	...........	1467.61
	31	0.533333	1.30997E-001	-5.08779E-006	0.00000E+000	1.31005E-001	0.00000E+000	9	...........	1467.61
	32	0.55	1.31996E-001	-4.99729E-006	0.00000E+000	1.32004E-001	0.00000E+000	9	...........	1467.61
	33	0.566667	1.32989E-001	-4.91109E-006	0.00000E+000	1.33004E-001	0.00000E+000	9	...........	1467.61
	34	0.583333	1.33981E-001	-4.82123E-006	0.00000E+000	1.34004E-001	0.00000E+000	9	...........	1467.61
	35	0.6	1.34982E-001	-4.72238E-006	0.00000E+000	1.35003E-001	0.00000E+000	9	...........	1467.61
	36	0.616667	1.35980E-001	-4.63993E-006	0.00000E+000	1.36003E-001	0.00000E+000	9	...........	1467.61
	37	0.633333	1.36974E-001	-4.54291E-006	0.00000E+000	1.37003E-001	0.00000E+000	9	...........	1467.56
	38	0.65	1.37979E-001	-4.46393E-006	0.00000E+000	1.38002E-001	0.00000E+000	9	...........	1467.52
	39	0.666667	1.38979E-001	-4.38559E-006	0.00000E+000	1.39002E-001	0.00000E+000	9	...........	1467.52
	40	0.683333	1.39974E-001	-4.30060E-006	0.00000E+000	1.40002E-001	0.00000E+000	9	...........	1467.52
	41	0.7	1.40997E-001	-4.21230E-006	0.00000E+000	1.41001E-001	0.00000E+000	9	...........	1467.52
	42	0.716667	1.41994E-001	-4.12441E-006	0.00000E+000	1.42001E-001	0.00000E+000	9	...........	1467.52
	43	0.733333	1.42988E-001	-4.04289E-006	0.00000E+000	1.43001E-001	0.00000E+000	9	...........	1467.52
	44	0.75	1.43974E-001	-3.96905E-006	0.00000E+000	1.44000E-001	0.00000E+000	9	...........	1467.52
	45	0.766667	1.44967E-001	-3.89171E-006	0.00000E+000	1.45000E-001	0.00000E+000	9	...........	1467.52
	46	0.783333	1.45961E-001	-3.81627E-006	0.00000E+000	1.46000E-001	0.00000E+000	9	...........	1467.52
	47	0.8	1.46975E-001	-3.73322E-006	0.00000E+000	1.46999E-001	0.00000E+000	9	...........	1467.52
	48	0.816667	1.47981E-001	-3.65330E-006	0.00000E+000	1.47999E-001	0.00000E+000	9	...........	1467.52
	49	0.833333	1.48971E-001	-3.57586E-006	0.00000E+000	1.48998E-001	0.00000E+000	9	...........	1467.52
	50	0.85	1.49964E-001	-3.50693E-006	0.00000E+000	1.49998E-001	0.00000E+000	9	...........	1467.52
	51	0.866667	1.50969E-001	-3.43824E-006	0.00000E+000	1.50998E-001	0.00000E+000	9	...........	1467.52
	52	0.883333	1.51959E-001	-3.36591E-006	0.00000E+000	1.51997E-001	0.00000E+000	9	...........	1467.52
	53	0.9	1.52959E-001	-3.29254E-006	0.00000E+000	1.52997E-001	0.00000E+000	9	...........	1467.52
	54	0.916667	1.53968E-001	-3.20825E-006	0.00000E+000	1.53997E-001	0.00000E+000	9	...........	1467.52
	55	0.933333	1.54974E-001	-3.13966E-006	0.00000E+000	1.54996E-001	0.00000E+000	9	...........	1467.52
	56	0.95	1.55976E-001	-3.07390E-006	0.00000E+000	1.55996E-001	0.00000E+000	9	...........	1467.52
	57	0.96667	1.56980E-001	-3.00771E-006	0.00000E+000	1.56996E-001	0.00000E+000	9	...........	1467.52
	58	0.98333	1.57966E-001	-2.94754E-006	0.00000E+000	1.57995E-001	0.00000E+000	9	...........	1467.52
	59	1	1.58953E-001	-2.86772E-006	0.00000E+000	1.58995E-001	0.00000E+000	9	...........	1467.52
	60	1.01667	1.59960E-001	-2.79873E-006	0.00000E+000	1.59995E-001	0.00000E+000	9	...........	1467.52
	61	1.03333	1.60957E-001	-2.72803E-006	0.00000E+000	1.60994E-001	0.00000E+000	9	...........	1467.52
	62	1.05	1.61957E-001	-2.66518E-006	0.00000E+000	1.61994E-001	0.00000E+000	9	...........	1467.52
	63	1.06667	1.62966E-001	-2.59478E-006	0.00000E+000	1.63006E-001	0.00000E+000	9	...........	1467.52
	64	1.08333	1.63975E-001	-2.54088E-006	0.00000E+000	1.64006E-001	0.00000E+000	9	...........	1467.52
	65	1.1	1.64963E-001	-2.47019E-006	0.00000E+000	1.65005E-001	0.00000E+000	9	...........	1467.52
	66	1.11667	1.65959E-001	-2.40149E-006	0.00000E+000	1.66005E-001	0.00000E+000	9	...........	1467.52
	67	1.13333	1.66987E-001	-2.33313E-006	0.00000E+000	1.67005E-001	0.00000E+000	9	...........	1467.52
	68	1.15	1.67985E-001	-2.27750E-006	0.00000E+000	1.68004E-001	0.00000E+000	9	...........	1467.52
	69	1.16667	1.68986E-001	-2.22400E-006	0.00000E+000	1.69004E-001	0.00000E+000	9	...........	1467.52
	70	1.18333	1.69990E-001	-2.15951E-006	0.00000E+000	1.70004E-001	0.00000E+000	9	...........	1467.52
	71	1.2	1.70972E-001	-2.09556E-006	0.00000E+000	1.71003E-001	0.00000E+000	9	...........	1467.52
	72	1.21667	1.71974E-001	-2.02734E-006	0.00000E+000	1.72003E-001	0.00000E+000	9	...........	1467.52
	73	1.23333	1.72976E-001	-1.96532E-006	0.00000E+000	1.73003E-001	0.00000E+000	9	...........	1467.52
	74	1.25	1.73973E-001	-1.90631E-006	0.00000E+000	1.74002E-001	0.00000E+000	9	...........	1467.52
	75	1.26667	1.74973E-001	-1.85191E-006	0.00000E+000	1.75002E-001	0.00000E+000	9	...........	1467.52
	76	1.28333	1.75981E-001	-1.79581E-006	0.00000E+000	1.76002E-001	0.00000E+000	9	...........	1467.52
	77	1.3	1.76966E-001	-1.72742E-006	0.00000E+000	1.77001E-001	0.00000E+000	9	...........	1467.52
	78	1.31667	1.77967E-001	-1.66079E-006	0.00000E+000	1.78001E-001	0.00000E+000	9	...........	1467.52
	79	1.33333	1.78962E-001	-1.60259E-006	0.00000E+000	1.79000E-001	0.00000E+000	9	...........	1467.52
	80	1.35	1.79972E-001	-1.56108E-006	0.00000E+000	1.80000E-001	0.00000E+000	9	...........	1467.52
	81	1.36667	1.80983E-001	-1.50297E-006	0.00000E+000	1.81000E-001	0.00000E+000	9	...........	1467.52
	82	1.38333	1.81991E-001	-1.45555E-006	0.00000E+000	1.81999E-001	0.00000E+000	9	...........	1467.52
	83	1.4	1.82985E-001	-1.38776E-006	0.00000E+000	1.82999E-001	0.00000E+000	9	...........	1467.52
	84	1.41667	1.83984E-001	-1.32681E-006	0.00000E+000	1.83999E-001	0.00000E+000	9	...........	1467.52
	85	1.43333	1.84975E-001	-1.26824E-006	0.00000E+000	1.84998E-001	0.00000E+000	9	...........	1467.52
	86	1.45	1.85978E-001	-1.22068E-006	0.00000E+000	1.85998E-001	0.00000E+000	9	...........	1467.52
	87	1.46667	1.86977E-001	-1.17139E-006	0.00000E+000	1.86998E-001	0.00000E+000	9	...........	1467.52
	88	1.48333	1.87976E-001	-1.12043E-006	0.00000E+000	1.87997E-001	0.00000E+000	9	...........	1467.52
	89	1.5	1.88969E-001	-1.06590E-006	0.00000E+000	1.88997E-001	0.00000E+000	9	...........	1467.52
	90	1.51667	1.89966E-001	-1.00882E-006	0.00000E+000	1.89997E-001	0.00000E+000	9	...........	1467.52
	91	1.53333	1.90966E-001	-9.52954E-007	0.00000E+000	1.90996E-001	0.00000E+000	9	...........	1467.52
	92	1.55	1.91996E-001	-8.99989E-007	0.00000E+000	1.91996E-001	0.00000E+000	9	...........	1467.52
	93	1.56667	1.92986E-001	-8.57010E-007	0.00000E+000	1.92996E-001	0.00000E+000	9	...........	1467.52
	94	1.58333	1.93973E-001	-8.07585E-007	0.00000E+000	1.93995E-001	0.00000E+000	9	...........	1467.52
	95	1.6	1.94968E-001	-7.51081E-007	0.00000E+000	1.94995E-001	0.00000E+000	9	...........	1467.52
	96	1.61667	1.95967E-001	-6.95078E-007	0.00000E+000	1.95995E-001	0.00000E+000	9	...........	1467.52
	97	1.63333	1.96966E-001	-6.43716E-007	0.00000E+000	1.96994E-001	0.00000E+000	9	...........	1467.47
	98	1.65	1.97961E-001	-5.95961E-007	0.00000E+000	1.97994E-001	0.00000E+000	9	...........	1467.43
	99	1.66667	1.98986E-001	-5.44900E-007	0.00000E+000	1.99006E-001	0.00000E+000	9	...........	1467.43
	100	1.68333	1.99986E-001	-5.04760E-007	0.00000E+000	2.00006E-001	0.00000E+000	9	...........	1467.43
	101	1.7	2.00977E-001	-4.49892E-007	0.00000E+000	2.01005E-001	0.00000E+000	9	...........	1467.43
	102	1.71667	2.01976E-001	-3.96560E-007	0.00000E+000	2.02005E-001	0.00000E+000	9	...........	1467.43
	103	1.73333	2.02978E-001	-3.43796E-007	0.00000E+000	2.03005E-001	0.00000E+000	9	...........	1467.43
	104	1.75	2.03986E-001	-2.83251E-007	0.00000E+000	2.04004E-001	0.00000E+000	9	...........	1467.43
	105	1.76667	2.04988E-001	-2.50423E-007	0.00000E+000	2.05004E-001	0.00000E+000	9	...........	1467.43
	106	1.78333	2.05984E-001	-2.04071E-007	0.00000E+000	2.06004E-001	0.00000E+000	9	...........	1467.43
	107	1.8	2.06972E-001	-1.58053E-007	0.00000E+000	2.07003E-001	0.00000E+000	9	...........	1467.43
	108	1.81667	2.07973E-001	-1.03719E-007	0.00000E+000	2.08003E-001	0.00000E+000	9	...........	1467.43
	109	1.83333	2.08964E-001	-5.63318E-008	0.00000E+000	2.09003E-001	0.00000E+000	9	...........	1467.43
	110	1.85	2.09959E-001	-1.26512E-008	0.00000E+000	2.10002E-001	0.00000E+000	9	...........	1467.43
	111	1.86667	2.10956E-001	2.47512E-008	0.00000E+000	2.11002E-001	0.00000E+000	9	...........	1467.43
	112	1.88333	2.11964E-001	6.20868E-008	0.00000E+000	2.12001E-001	0.00000E+000	9	...........	1467.43
	113	1.9	2.12954E-001	1.12714E-007	0.00000E+000	2.13001E-001	0.00000E+000	9	...........	1467.43
	114	1.91667	2.13951E-001	1.56728E-007	0.00000E+000	2.14001E-001	0.00000E+000	9	...........	1467.43
	115	1.93333	2.14954E-001	2.07388E-007	0.00000E+000	2.15000E-001	0.00000E+000	9	...........	1467.43
	116	1.95	2.15951E-001	2.43088E-007	0.00000E+000	2.16000E-001	0.00000E+000	9	...........	1467.43
	117	1.96667	2.16952E-001	2.81225E-007	0.00000E+000	2.17000E-001	0.00000E+000	9	...........	1467.43
	118	1.98333	2.17986E-001	3.16390E-007	0.00000E+000	2.17999E-001	0.00000E+000	9	...........	1467.43
	119	2	2.18977E-001	3.63276E-007	0.00000E+000	2.18999E-001	0.00000E+000	9	...........	1467.43
	120	2.01667	2.19970E-001	4.12868E-007	0.00000E+000	2.19999E-001	0.00000E+000	9	...........	1467.43
	121	2.03333	2.20973E-001	4.59520E-007	0.00000E+000	2.20998E-001	0.00000E+000	9	...........	1467.43
	122	2.05	2.21975E-001	5.00696E-007	0.00000E+000	2.21998E-001	0.00000E+000	9	...........	1467.43
	123	2.06667	2.22975E-001	5.34526E-007	0.00000E+000	2.22998E-001	0.00000E+000	9	...........	1467.43
	124	2.08333	2.23978E-001	5.73598E-007	0.00000E+000	2.23997E-001	0.00000E+000	9	...........	1467.43
	125	2.1	2.24964E-001	6.15609E-007	0.00000E+000	2.24997E-001	0.00000E+000	9	...........	1467.43
	126	2.11667	2.25956E-001	6.62529E-007	0.00000E+000	2.25997E-001	0.00000E+000	9	...........	1467.43
	127	2.13333	2.26953E-001	7.07845E-007	0.00000E+000	2.26996E-001	0.00000E+000	9	...........	1467.43
	128	2.15	2.27963E-001	7.55467E-007	0.00000E+000	2.27996E-001	0.00000E+000	9	...........	1467.43
	129	2.16667	2.28957E-001	7.83485E-007	0.00000E+000	2.28996E-001	0.00000E+000	9	...........	1467.43
	130	2.18333	2.29952E-001	8.21455E-007	0.00000E+000	2.29995E-001	0.00000E+000	9	...........	1467.43
	131	2.2	2.30964E-001	8.58490E-007	0.00000E+000	2.30995E-001	0.00000E+000	9	...........	1467.43
	132	2.21667	2.31970E-001	9.02238E-007	0.00000E+000	2.31994E-001	0.00000E+000	9	...........	1467.43
	133	2.23333	2.32965E-001	9.46820E-007	0.00000E+000	2.32994E-001	0.00000E+000	9	...........	1467.43
	134	2.25	2.33967E-001	9.82953E-007	0.00000E+000	2.33994E-001	0.00000E+000	9	...........	1467.43
	135	2.26667	2.34971E-001	1.02390E-006	0.00000E+000	2.35006E-001	0.00000E+000	9	...........	1467.43
	136	2.28333	2.35966E-001	1.04363E-006	0.00000E+000	2.36006E-001	0.00000E+000	9	...........	1467.43
	137	2.3	2.36971E-001	1.07956E-006	0.00000E+000	2.37005E-001	0.00000E+000	9	...........	1467.43
	138	2.31667	2.37974E-001	1.11917E-006	0.00000E+000	2.38005E-001	0.00000E+000	9	...........	1467.43
	139	2.33333	2.38969E-001	1.16269E-006	0.00000E+000	2.39005E-001	0.00000E+000	9	...........	1467.43
	140	2.35	2.39980E-001	1.19939E-006	0.00000E+000	2.40004E-001	0.00000E+000	9	...........	1467.43
	141	2.36667	2.40961E-001	1.22944E-006	0.00000E+000	2.41004E-001	0.00000E+000	9	...........	1467.43
	142	2.38333	2.41957E-001	1.25779E-006	0.00000E+000	2.42004E-001	0.00000E+000	9	...........	1467.43
	143	2.4	2.42979E-001	1.28842E-006	0.00000E+000	2.43003E-001	0.00000E+000	9	...........	1467.43
	144	2.41667	2.43996E-001	1.33066E-006	0.00000E+000	2.44003E-001	0.00000E+000	9	...........	1467.43
	145	2.43333	2.44978E-001	1.37050E-006	0.00000E+000	2.45002E-001	0.00000E+000	9	...........	1467.43
	146	2.45	2.45974E-001	1.40700E-006	0.00000E+000	2.46002E-001	0.00000E+000	9	...........	1467.43
	147	2.46667	2.46966E-001	1.43556E-006	0.00000E+000	2.47002E-001	0.00000E+000	9	...........	1467.43
	148	2.48333	2.47969E-001	1.46030E-006	0.00000E+000	2.48001E-001	0.00000E+000	9	...........	1467.43
	149	2.5	2.48961E-001	1.49062E-006	0.00000E+000	2.49001E-001	0.00000E+000	9	...........	1467.43
	150	2.51667	2.49965E-001	1.53253E-006	0.00000E+000	2.50001E-001	0.00000E+000	9	...........	1467.43
	151	2.53333	2.50964E-001	1.56650E-006	0.00000E+000	2.51000E-001	0.00000E+000	9	...........	1467.43
	152	2.55	2.51959E-001	1.59882E-006	0.00000E+000	2.52000E-001	0.00000E+000	9	...........	1467.43
	153	2.56667	2.52957E-001	1.63052E-006	0.00000E+000	2.53000E-001	0.00000E+000	9	...........	1467.43
	154	2.58333	2.53947E-001	1.65974E-006	0.00000E+000	2.53999E-001	0.00000E+000	9	...........	1467.43
	155	2.6	2.54948E-001	1.69190E-006	0.00000E+000	2.54999E-001	0.00000E+000	9	...........	1467.43
	156	2.61667	2.55961E-001	1.73144E-006	0.00000E+000	2.55999E-001	0.00000E+000	9	...........	1467.43
	157	2.63333	2.56966E-001	1.76460E-006	0.00000E+000	2.56998E-001	0.00000E+000	9	...........	1467.49
	158	2.65	2.57969E-001	1.80283E-006	0.00000E+000	2.57998E-001	0.00000E+000	9	...........	1467.52
	159	2.66667	2.58966E-001	1.82564E-006	0.00000E+000	2.58998E-001	0.00000E+000	9	...........	1467.52
	160	2.68333	2.59962E-001	1.85146E-006	0.00000E+000	2.59997E-001	0.00000E+000	9	...........	1467.52
	161	2.7	2.60956E-001	1.88251E-006	0.00000E+000	2.60997E-001	0.00000E+000	9	...........	1467.52
	162	2.71667	2.61954E-001	1.91364E-006	0.00000E+000	2.61997E-001	0.00000E+000	9	...........	1467.52
	163	2.73333	2.62958E-001	1.95608E-006	0.00000E+000	2.62996E-001	0.00000E+000	9	...........	1467.52
	164	2.75	2.63959E-001	1.98454E-006	0.00000E+000	2.63996E-001	0.00000E+000	9	...........	1467.52
	165	2.76667	2.64953E-001	2.00891E-006	0.00000E+000	2.64995E-001	0.00000E+000	9	...........	1467.52
	166	2.78333	2.65949E-001	2.03864E-006	0.00000E+000	2.65995E-001	0.00000E+000	9	...........	1467.52
	167	2.8	2.66946E-001	2.06876E-006	0.00000E+000	2.66995E-001	0.00000E+000	9	...........	1467.52
	168	2.81667	2.67938E-001	2.10816E-006	0.00000E+000	2.67994E-001	0.00000E+000	9	...........	1467.52
	169	2.83333	2.68976E-001	2.13992E-006	0.00000E+000	2.68994E-001	0.00000E+000	9	...........	1467.52
	170	2.85	2.69972E-001	2.17622E-006	0.00000E+000	2.69994E-001	0.00000E+000	9	...........	1467.52
	171	2.86667	2.70983E-001	2.21005E-006	0.00000E+000	2.71006E-001	0.00000E+000	9	...........	1467.52
	172	2.88333	2.71974E-001	2.23042E-006	0.00000E+000	2.72006E-001	0.00000E+000	9	...........	1467.52
	173	2.9	2.72973E-001	2.25914E-006	0.00000E+000	2.73005E-001	0.00000E+000	9	...........	1467.52
	174	2.91667	2.73964E-001	2.29411E-006	0.00000E+000	2.74005E-001	0.00000E+000	9	...........	1467.52
	175	2.93333	2.74959E-001	2.33428E-006	0.00000E+000	2.75004E-001	0.00000E+000	9	...........	1467.52
	176	2.95	2.75964E-001	2.36430E-006	0.00000E+000	2.76004E-001	0.00000E+000	9	...........	1467.52
	177	2.96667	2.76961E-001	2.38758E-006	0.00000E+000	2.77004E-001	0.00000E+000	9	...........	1467.52
	178	2.98333	2.77958E-001	2.41293E-006	0.00000E+000	2.78003E-001	0.00000E+000	9	...........	1467.52
	179	3	2.78958E-001	2.44442E-006	0.00000E+000	2.79003E-001	0.00000E+000	9	...........	1467.52
	180	3.01667	2.79962E-001	2.47781E-006	0.00000E+000	2.80003E-001	0.00000E+000	9	...........	1467.52
	181	3.03333	2.80957E-001	2.51358E-006	0.00000E+000	2.81002E-001	0.00000E+000	9	...........	1467.52
	182	3.05	2.81966E-001	2.54420E-006	0.00000E+000	2.82002E-001	0.00000E+000	9	...........	1467.52
	183	3.06667	2.82965E-001	2.57189E-006	0.00000E+000	2.83002E-001	0.00000E+000	9	...........	1467.52
	184	3.08333	2.83982E-001	2.59810E-006	0.00000E+000	2.84001E-001	0.00000E+000	9	...........	1467.52
	185	3.1	2.84978E-001	2.62602E-006	0.00000E+000	2.85001E-001	0.00000E+000	9	...........	1467.52
	186	3.11667	2.85975E-001	2.66322E-006	0.00000E+000	2.86001E-001	0.00000E+000	9	...........	1467.52
	187	3.13333	2.86977E-001	2.69675E-006	0.00000E+000	2.87000E-001	0.00000E+000	9	...........	1467.52
	188	3.15	2.87979E-001	2.73546E-006	0.00000E+000	2.88000E-001	0.00000E+000	9	...........	1467.52
	189	3.16667	2.88970E-001	2.75496E-006	0.00000E+000	2.89000E-001	0.00000E+000	9	...........	1467.52
	190	3.18333	2.89969E-001	2.78007E-006	0.00000E+000	2.89999E-001	0.00000E+000	9	...........	1467.52
	191	3.2	2.90955E-001	2.80629E-006	0.00000E+000	2.90999E-001	0.00000E+000	9	...........	1467.52
	192	3.21667	2.91961E-001	2.84292E-006	0.00000E+000	2.91999E-001	0.00000E+000	9	...........	1467.52
	193	3.23333	2.92963E-001	2.88089E-006	0.00000E+000	2.92998E-001	0.00000E+000	9	...........	1467.52
	194	3.25	2.93956E-001	2.91158E-006	0.00000E+000	2.93998E-001	0.00000E+000	9	...........	1467.52
	195	3.26667	2.94990E-001	2.93860E-006	0.00000E+000	2.94998E-001	0.00000E+000	9	...........	1467.52
	196	3.28333	2.95982E-001	2.96100E-006	0.00000E+000	2.95997E-001	0.00000E+000	9	...........	1467.52
	197	3.3	2.96965E-001	2.99180E-006	0.00000E+000	2.96997E-001	0.00000E+000	9	...........	1467.52
	198	3.31667	2.97975E-001	3.02913E-006	0.00000E+000	2.97996E-001	0.00000E+000	9	...........	1467.52
	199	3.33333	2.98970E-001	3.06386E-006	0.00000E+000	2.98996E-001	0.00000E+000	9	...........	1467.52
	200	3.35	2.99971E-001	3.09879E-006	0.00000E+000	2.99996E-001	0.00000E+000	9	...........	1467.52
	201	3.36667	2.98992E-001	1.36980E-006	0.00000E+000	2.98996E-001	0.00000E+000	9	...........	1467.52
	202	3.38333	2.97996E-001	1.13984E-006	0.00000E+000	2.97996E-001	0.00000E+000	9	...........	1467.52
	203	3.4	2.96992E-001	9.91202E-007	0.00000E+000	2.96997E-001	0.00000E+000	9	...........	1467.52
	204	3.41667	2.96002E-001	8.70846E-007	0.00000E+000	2.95997E-001	0.00000E+000	9	...........	1467.52
	205	3.43333	2.95007E-001	7.67789E-007	0.00000E+000	2.94998E-001	0.00000E+000	9	...........	1467.52
	206	3.45	2.93980E-001	6.79794E-007	0.00000E+000	2.93998E-001	0.00000E+000	9	...........	1467.52
	207	3.46667	2.92983E-001	5.84885E-007	0.00000E+000	2.92998E-001	0.00000E+000	9	...........	1467.52
	208	3.48333	2.91992E-001	4.97324E-007	0.00000E+000	2.91999E-001	0.00000E+000	9	...........	1467.52
	209	3.5	2.90987E-001	4.15539E-007	0.00000E+000	2.90999E-001	0.00000E+000	9	...........	1467.52
	210	3.51667	2.89996E-001	3.43840E-007	0.00000E+000	2.89999E-001	0.00000E+000	9	...........	1467.52
	211	3.53333	2.89007E-001	2.87236E-007	0.00000E+000	2.89000E-001	0.00000E+000	9	...........	1467.52
	212	3.55	2.88006E-001	2.20078E-007	0.00000E+000	2.88000E-001	0.00000E+000	9	...........	1467.52
	213	3.56667	2.86997E-001	1.51151E-007	0.00000E+000	2.87000E-001	0.00000E+000	9	...........	1467.52
	214	3.58333	2.85999E-001	8.18567E-008	0.00000E+000	2.86001E-001	0.00000E+000	9	...........	1467.52
	215	3.6	2.85004E-001	2.14451E-008	0.00000E+000	2.85001E-001	0.00000E+000	9	...........	1467.52
	216	3.61667	2.84011E-001	-3.34562E-008	0.00000E+000	2.84001E-001	0.00000E+000	9	...........	1467.52
	217	3.63333	2.82999E-001	-8.20459E-008	0.00000E+000	2.83002E-001	0.00000E+000	9	...........	1467.72
	218	3.65	2.81993E-001	-1.34944E-007	0.00000E+000	2.82002E-001	0.00000E+000	9	...........	1467.79
	219	3.66667	2.80981E-001	-1.98995E-007	0.00000E+000	2.81002E-001	0.00000E+000	9	...........	1467.79
	220	3.68333	2.79984E-001	-2.57971E-007	0.00000E+000	2.80003E-001	0.00000E+000	9	...........	1467.79
	221	3.7	2.78979E-001	-3.17046E-007	0.00000E+000	2.79003E-001	0.00000E+000	9	...........	1467.79
	222	3.71667	2.77984E-001	-3.61328E-007	0.00000E+000	2.78003E-001	0.00000E+000	9	...........	1467.79
	223	3.73333	2.76987E-001	-4.13157E-007	0.00000E+000	2.77004E-001	0.00000E+000	9	...........	1467.79
	224	3.75	2.75990E-001	-4.53265E-007	0.00000E+000	2.76004E-001	0.00000E+000	9	...........	1467.79
	225	3.76667	2.74983E-001	-5.04526E-007	0.00000E+000	2.75004E-001	0.00000E+000	9	...........	1467.79
	226	3.78333	2.73990E-001	-5.65138E-007	0.00000E+000	2.74005E-001	0.00000E+000	9	...........	1467.79
	227	3.8	2.72997E-001	-6.11624E-007	0.00000E+000	2.73005E-001	0.00000E+000	9	...........	1467.79
	228	3.81667	2.71999E-001	-6.59044E-007	0.00000E+000	2.72006E-001	0.00000E+000	9	...........	1467.79
	229	3.83333	2.71001E-001	-6.98217E-007	0.00000E+000	2.71006E-001	0.00000E+000	9	...........	1467.79
	230	3.85	2.69992E-001	-7.52150E-007	0.00000E+000	2.69994E-001	0.00000E+000	9	...........	1467.79
	231	3.86667	2.69000E-001	-7.90754E-007	0.00000E+000	2.68994E-001	0.00000E+000	9	...........	1467.79
	232	3.88333	2.67967E-001	-8.46390E-007	0.00000E+000	2.67994E-001	0.00000E+000	9	...........	1467.79
	233	3.9	2.66964E-001	-8.94446E-007	0.00000E+000	2.66995E-001	0.00000E+000	9	...........	1467.79
	234	3.91667	2.65979E-001	-9.32416E-007	0.00000E+000	2.65995E-001	0.00000E+000	9	...........	1467.79
	235	3.93333	2.64977E-001	-9.69183E-007	0.00000E+000	2.64995E-001	0.00000E+000	9	...........	1467.79
	236	3.95	2.63981E-001	-1.00979E-006	0.00000E+000	2.63996E-001	0.00000E+000	9	...........	1467.79
	237	3.96667	2.62978E-001	-1.05558E-006	0.00000E+000	2.62996E-001	0.00000E+000	9	...........	1467.79
	238	3.98333	2.61977E-001	-1.10480E-006	0.00000E+000	2.61997E-001	0.00000E+000	9	...........	1467.79
	239	4	2.60980E-001	-1.14781E-006	0.00000E+000	2.60997E-001	0.00000E+000	9	...........	1467.79
	240	4.01667	2.59983E-001	-1.19316E-006	0.00000E+000	2.59997E-001	0.00000E+000	9	...........	1467.79
	241	4.03333	2.58989E-001	-1.22666E-006	0.00000E+000	2.58998E-001	0.00000E+000	9	...........	1467.79
	242	4.05	2.57987E-001	-1.26660E-006	0.00000E+000	2.57998E-001	0.00000E+000	9	...........	1467.79
	243	4.06667	2.56993E-001	-1.31258E-006	0.00000E+000	2.56998E-001	0.00000E+000	9	...........	1467.79
	244	4.08333	2.55983E-001	-1.35553E-006	0.00000E+000	2.55999E-001	0.00000E+000	9	...........	1467.79
	245	4.1	2.54970E-001	-1.39848E-006	0.00000E+000	2.54999E-001	0.00000E+000	9	...........	1467.79
	246	4.11667	2.53968E-001	-1.44319E-006	0.00000E+000	2.53999E-001	0.00000E+000	9	...........	1467.79
	247	4.13333	2.52975E-001	-1.47308E-006	0.00000E+000	2.53000E-001	0.00000E+000	9	...........	1467.79
	248	4.15	2.51983E-001	-1.51466E-006	0.00000E+000	2.52000E-001	0.00000E+000	9	...........	1467.79
	249	4.16667	2.50993E-001	-1.55533E-006	0.00000E+000	2.51000E-001	0.00000E+000	9	...........	1467.79
	250	4.18333	2.49991E-001	-1.60028E-006	0.00000E+000	2.50001E-001	0.00000E+000	9	...........	1467.79
	251	4.2	2.48988E-001	-1.64660E-006	0.00000E+000	2.49001E-001	0.00000E+000	9	...........	1467.79
	252	4.21667	2.47994E-001	-1.68748E-006	0.00000E+000	2.48001E-001	0.00000E+000	9	...........	1467.79
	253	4.23333	2.46993E-001	-1.72388E-006	0.00000E+000	2.47002E-001	0.00000E+000	9	...........	1467.79
	254	4.25	2.45999E-001	-1.76415E-006	0.00000E+000	2.46002E-001	0.00000E+000	9	...........	1467.79
	255	4.26667	2.45010E-001	-1.80700E-006	0.00000E+000	2.45002E-001	0.00000E+000	9	...........	1467.79
	256	4.28333	2.44012E-001	-1.85742E-006	0.00000E+000	2.44003E-001	0.00000E+000	9	...........	1467.79
	257	4.3	2.43006E-001	-1.90087E-006	0.00000E+000	2.43003E-001	0.00000E+000	9	...........	1467.79
	258	4.31667	2.41997E-001	-1.94736E-006	0.00000E+000	2.42004E-001	0.00000E+000	9	...........	1467.79
	259	4.33333	2.40992E-001	-1.97855E-006	0.00000E+000	2.41004E-001	0.00000E+000	9	...........	1467.79
	260	4.35	2.40008E-001	-2.00717E-006	0.00000E+000	2.40004E-001	0.00000E+000	9	...........	1467.79
	261	4.36667	2.38996E-001	-2.05352E-006	0.00000E+000	2.39005E-001	0.00000E+000	9	...........	1467.79
	262	4.38333	2.37995E-001	-2.10531E-006	0.00000E+000	2.38005E-001	0.00000E+000	9	...........	1467.79
	263	4.4	2.36996E-001	-2.15364E-006	0.00000E+000	2.37005E-001	0.00000E+000	9	...........	1467.79
	264	4.41667	2.35991E-001	-2.18967E-006	0.00000E+000	2.36006E-001	0.00000E+000	9	...........	1467.79
	265	4.43333	2.34996E-001	-2.22878E-006	0.00000E+000	2.35006E-001	0.00000E+000	9	...........	1467.79
	266	4.45	2.33992E-001	-2.27877E-006	0.00000E+000	2.33994E-001	0.00000E+000	9	...........	1467.79
	267	4.46667	2.32990E-001	-2.31106E-006	0.00000E+000	2.32994E-001	0.00000E+000	9	...........	1467.79
	268	4.48333	2.31993E-001	-2.36306E-006	0.00000E+000	2.31994E-001	0.00000E+000	9	...........	1467.79
	269	4.5	2.30999E-001	-2.40560E-006	0.00000E+000	2.30995E-001	0.00000E+000	9	...........	1467.79
	270	4.51667	2.29989E-001	-2.44825E-006	0.00000E+000	2.29995E-001	0.00000E+000	9	...........	1467.79
	271	4.53333	2.28978E-001	-2.48809E-006	0.00000E+000	2.28996E-001	0.00000E+000	9	...........	1467.79
	272	4.55	2.27977E-001	-2.53217E-006	0.00000E+000	2.27996E-001	0.00000E+000	9	...........	1467.79
	273	4.56667	2.26971E-001	-2.57228E-006	0.00000E+000	2.26996E-001	0.00000E+000	9	...........	1467.79
	274	4.58333	2.25974E-001	-2.62895E-006	0.00000E+000	2.25997E-001	0.00000E+000	9	...........	1467.79
	275	4.6	2.24981E-001	-2.67861E-006	0.00000E+000	2.24997E-001	0.00000E+000	9	...........	1467.79
	276	4.61667	2.23995E-001	-2.72005E-006	0.00000E+000	2.23997E-001	0.00000E+000	9	...........	1467.79
	277	4.63333	2.22994E-001	-2.75722E-006	0.00000E+000	2.22998E-001	0.00000E+000	9	...........	1467.79
	278	4.65	2.21993E-001	-2.80774E-006	0.00000E+000	2.21998E-001	0.00000E+000	9	...........	1467.79
	279	4.66667	2.20999E-001	-2.85092E-006	0.00000E+000	2.20998E-001	0.00000E+000	9	...........	1467.79
	280	4.68333	2.19999E-001	-2.90623E-006	0.00000E+000	2.19999E-001	0.00000E+000	9	...........	1467.79
	281	4.7	2.19006E-001	-2.95986E-006	0.00000E+000	2.18999E-001	0.00000E+000	9	...........	1467.79
	282	4.71667	2.18011E-001	-3.00735E-006	0.00000E+000	2.17999E-001	0.00000E+000	9	...........	1467.79
	283	4.73333	2.16978E-001	-3.05437E-006	0.00000E+000	2.17000E-001	0.00000E+000	9	...........	1467.79
	284	4.75	2.15976E-001	-3.09748E-006	0.00000E+000	2.16000E-001	0.00000E+000	9	...........	1467.79
	285	4.76667	2.14980E-001	-3.14627E-006	0.00000E+000	2.15000E-001	0.00000E+000	9	...........	1467.79
	286	4.78333	2.13975E-001	-3.20301E-006	0.00000E+000	2.14001E-001	0.00000E+000	9	...........	1467.79
	287	4.8	2.12980E-001	-3.25557E-006	0.00000E+000	2.13001E-001	0.00000E+000	9	...........	1467.79
	288	4.81667	2.11992E-001	-3.30603E-006	0.00000E+000	2.12001E-001	0.00000E+000	9	...........	1467.79
	289	4.83333	2.10981E-001	-3.35509E-006	0.00000E+000	2.11002E-001	0.00000E+000	9	...........	1467.79
	290	4.85	2.09990E-001	-3.40201E-006	0.00000E+000	2.10002E-001	0.00000E+000	9	...........	1467.79
	291	4.86667	2.08995E-001	-3.44886E-006	0.00000E+000	2.09003E-001	0.00000E+000	9	...........	1467.79
	292	4.88333	2.08002E-001	-3.50710E-006	0.00000E+000	2.08003E-001	0.00000E+000	9	...........	1467.79
	293	4.9	2.06997E-001	-3.56361E-006	0.00000E+000	2.07003E-001	0.00000E+000	9	...........	1467.79
	294	4.91667	2.06006E-001	-3.61594E-006	0.00000E+000	2.06004E-001	0.00000E+000	9	...........	1467.79
	295	4.93333	2.05010E-001	-3.66626E-006	0.00000E+000	2.05004E-001	0.00000E+000	9	...........	1467.79
	296	4.95	2.03998E-001	-3.71385E-006	0.00000E+000	2.04004E-001	0.00000E+000	9	...........	1467.79
	297	4.96667	2.02998E-001	-3.76404E-006	0.00000E+000	2.03005E-001	0.00000E+000	9	...........	1467.79
	298	4.98333	2.01999E-001	-3.82529E-006	0.00000E+000	2.02005E-001	0.00000E+000	9	...........	1467.79
	299	5	2.00998E-001	-3.88163E-006	0.00000E+000	2.01005E-001	0.00000E+000	9	...........	1467.79
	300	5.01667	2.00008E-001	-3.94261E-006	0.00000E+000	2.00006E-001	0.00000E+000	9	...........	1467.79
	301	5.03333	1.99010E-001	-3.98675E-006	0.00000E+000	1.99006E-001	0.00000E+000	9	...........	1467.79
	302	5.05	1.97994E-001	-4.05431E-006	0.00000E+000	1.97994E-001	0.00000E+000	9	...........	1467.79
	303	5.06667	1.97000E-001	-4.10000E-006	0.00000E+000	1.96994E-001	0.00000E+000	9	...........	1467.79
	304	5.08333	1.95997E-001	-4.16652E-006	0.00000E+000	1.95995E-001	0.00000E+000	9	...........	1467.79
	305	5.1	1.94999E-001	-4.22736E-006	0.00000E+000	1.94995E-001	0.00000E+000	9	...........	1467.79
	306	5.11667	1.94012E-001	-4.28253E-006	0.00000E+000	1.93995E-001	0.00000E+000	9	...........	1467.79
	307	5.13333	1.93020E-001	-4.33820E-006	0.00000E+000	1.92996E-001	0.00000E+000	9	...........	1467.79
	308	5.15	1.92021E-001	-4.39130E-006	0.00000E+000	1.91996E-001	0.00000E+000	9	...........	1467.79
	309	5.16667	1.90989E-001	-4.43969E-006	0.00000E+000	1.90996E-001	0.00000E+000	9	...........	1467.79
	310	5.18333	1.89985E-001	-4.51636E-006	0.00000E+000	1.89997E-001	0.00000E+000	9	...........	1467.79
	311	5.2	1.88995E-001	-4.57931E-006	0.00000E+000	1.88997E-001	0.00000E+000	9	...........	1467.79
	312	5.21667	1.88002E-001	-4.64420E-006	0.00000E+000	1.87997E-001	0.00000E+000	9	...........	1467.79
	313	5.23333	1.87001E-001	-4.69296E-006	0.00000E+000	1.86998E-001	0.00000E+000	9	...........	1467.79
	314	5.25	1.86004E-001	-4.74238E-006	0.00000E+000	1.85998E-001	0.00000E+000	9	...........	1467.79
	315	5.26667	1.85001E-001	-4.80196E-006	0.00000E+000	1.84998E-001	0.00000E+000	9	...........	1467.79
	316	5.28333	1.84006E-001	-4.87079E-006	0.00000E+000	1.83999E-001	0.00000E+000	9	...........	1467.79
	317	5.3	1.83010E-001	-4.93754E-006	0.00000E+000	1.82999E-001	0.00000E+000	9	...........	1467.79
	318	5.31667	1.82009E-001	-5.00510E-006	0.00000E+000	1.81999E-001	0.00000E+000	9	...........	1467.79
	319	5.33333	1.81006E-001	-5.06067E-006	0.00000E+000	1.81000E-001	0.00000E+000	9	...........	1467.79
	320	5.35	1.80001E-001	-5.11911E-006	0.00000E+000	1.80000E-001	0.00000E+000	9	...........	1467.79
	321	5.36667	1.78985E-001	-5.17645E-006	0.00000E+000	1.79000E-001	0.00000E+000	9	...........	1467.79
	322	5.38333	1.77982E-001	-5.25019E-006	0.00000E+000	1.78001E-001	0.00000E+000	9	...........	1467.79
	323	5.4	1.76989E-001	-5.31514E-006	0.00000E+000	1.77001E-001	0.00000E+000	9	...........	1467.79
	324	5.41667	1.76008E-001	-5.38039E-006	0.00000E+000	1.76002E-001	0.00000E+000	9	...........	1467.79
	325	5.43333	1.74999E-001	-5.44371E-006	0.00000E+000	1.75002E-001	0.00000E+000	9	...........	1467.79
	326	5.45	1.74004E-001	-5.50462E-006	0.00000E+000	1.74002E-001	0.00000E+000	9	...........	1467.79
	327	5.46667	1.73005E-001	-5.56457E-006	0.00000E+000	1.73003E-001	0.00000E+000	9	...........	1467.79
	328	5.48333	1.72006E-001	-5.63212E-006	0.00000E+000	1.72003E-001	0.00000E+000	9	...........	1467.79
	329	5.5	1.71007E-001	-5.70539E-006	0.00000E+000	1.71003E-001	0.00000E+000	9	...........	1467.79
	330	5.51667	1.70014E-001	-5.77412E-006	0.00000E+000	1.70004E-001	0.00000E+000	9	...........	1467.79
	331	5.53333	1.69016E-001	-5.83179E-006	0.00000E+000	1.69004E-001	0.00000E+000	9	...........	1467.79
	332	5.55	1.68019E-001	-5.89444E-006	0.00000E+000	1.68004E-001	0.00000E+000	9	...........	1467.79
	333	5.56667	1.67018E-001	-5.95055E-006	0.00000E+000	1.67005E-001	0.00000E+000	9	...........	1467.79
	334	5.58333	1.65990E-001	-6.02976E-006	0.00000E+000	1.66005E-001	0.00000E+000	9	...........	1467.79
	335	5.6	1.64992E-001	-6.09758E-006	0.00000E+000	1.65005E-001	0.00000E+000	9	...........	1467.79
	336	5.61667	1.64000E-001	-6.16985E-006	0.00000E+000	1.64006E-001	0.00000E+000	9	...........	1467.79
	337	5.63333	1.62994E-001	-6.23661E-006	0.00000E+000	1.63006E-001	0.00000E+000	9	...........	1467.49
	338	5.65	1.61982E-001	-6.30042E-006	0.00000E+000	1.61994E-001	0.00000E+000	9	...........	1467.43
	339	5.66667	1.60986E-001	-6.35242E-006	0.00000E+000	1.60994E-001	0.00000E+000	9	...........	1467.43
	340	5.68333	1.59984E-001	-6.42786E-006	0.00000E+000	1.59995E-001	0.00000E+000	9	...........	1467.43
	341	5.7	1.58977E-001	-6.50210E-006	0.00000E+000	1.58995E-001	0.00000E+000	9	...........	1467.43
	342	5.71667	1.57989E-001	-6.57012E-006	0.00000E+000	1.57995E-001	0.00000E+000	9	...........	1467.43
	343	5.73333	1.56998E-001	-6.63524E-006	0.00000E+000	1.56996E-001	0.00000E+000	9	...........	1467.43
	344	5.75	1.55991E-001	-6.69929E-006	0.00000E+000	1.55996E-001	0.00000E+000	9	...........	1467.43
	345	5.76667	1.54985E-001	-6.76692E-006	0.00000E+000	1.54996E-001	0.00000E+000	9	...........	1467.43
	346	5.78333	1.53981E-001	-6.84096E-006	0.00000E+000	1.53997E-001	0.00000E+000	9	...........	1467.43
	347	5.8	1.52974E-001	-6.91529E-006	0.00000E+000	1.52997E-001	0.00000E+000	9	...........	1467.43
	348	5.81667	1.51979E-001	-6.98152E-006	0.00000E+000	1.51997E-001	0.00000E+000	9	...........	1467.43
	349	5.83333	1.50980E-001	-7.05482E-006	0.00000E+000	1.50998E-001	0.00000E+000	9	...........	1467.43
	350	5.85	1.49987E-001	-7.11520E-006	0.00000E+000	1.49998E-001	0.00000E+000	9	...........	1467.43
	351	5.86667	1.48990E-001	-7.18429E-006	0.00000E+000	1.48998E-001	0.00000E+000	9	...........	1467.43
	352	5.88333	1.48003E-001	-7.25826E-006	0.00000E+000	1.47999E-001	0.00000E+000	9	...........	1467.43
	353	5.9	1.47006E-001	-7.33440E-006	0.00000E+000	1.46999E-001	0.00000E+000	9	...........	1467.43
	354	5.91667	1.46003E-001	-7.40870E-006	0.00000E+000	1.46000E-001	0.00000E+000	9	...........	1467.43
	355	5.93333	1.45010E-001	-7.47703E-006	0.00000E+000	1.45000E-001	0.00000E+000	9	...........	1467.43
	356	5.95	1.44015E-001	-7.54329E-006	0.00000E+000	1.44000E-001	0.00000E+000	9	...........	1467.43
	357	5.96667	1.43018E-001	-7.60704E-006	0.00000E+000	1.43001E-001	0.00000E+000	9	...........	1467.43
	358	5.98333	1.42026E-001	-7.68792E-006	0.00000E+000	1.42001E-001	0.00000E+000	9	...........	1467.43
	359	6	1.41027E-001	-7.76433E-006	0.00000E+000	1.41001E-001	0.00000E+000	9	...........	1467.43
	360	6.01667	1.40005E-001	-7.84244E-006	0.00000E+000	1.40002E-001	0.00000E+000	9	...........	1467.43
	361	6.03333	1.39010E-001	-7.91384E-006	0.00000E+000	1.39002E-001	0.00000E+000	9	...........	1467.43
	362	6.05	1.38007E-001	-7.98230E-006	0.00000E+000	1.38002E-001	0.00000E+000	9	...........	1467.43
	363	6.06667	1.37005E-001	-8.05306E-006	0.00000E+000	1.37003E-001	0.00000E+000	9	...........	1467.43
	364	6.08333	1.36007E-001	-8.13204E-006	0.00000E+000	1.36003E-001	0.00000E+000	9	...........	1467.43
	365	6.1	1.35009E-001	-8.21743E-006	0.00000E+000	1.35003E-001	0.00000E+000	9	...........	1467.43
	366	6.11667	1.34008E-001	-8.29584E-006	0.00000E+000	1.34004E-001	0.00000E+000	9	...........	1467.43
	367	6.13333	1.33017E-001	-8.37198E-006	0.00000E+000	1.33004E-001	0.00000E+000	9	...........	1467.43
	368	6.15	1.32018E-001	-8.44819E-006	0.00000E+000	1.32004E-001	0.00000E+000	9	...........	1467.43
	369	6.16667	1.31020E-001	-8.52383E-006	0.00000E+000	1.31005E-001	0.00000E+000	9	...........	1467.43
	370	6.18333	1.30019E-001	-8.60495E-006	0.00000E+000	1.30005E-001	0.00000E+000	9	...........	1467.43
	371	6.2	1.29022E-001	-8.69277E-006	0.00000E+000	1.29005E-001	0.00000E+000	9	...........	1467.43
	372	6.21667	1.28020E-001	-8.77282E-006	0.00000E+000	1.28006E-001	0.00000E+000	9	...........	1467.43
	373	6.23333	1.27001E-001	-8.85474E-006	0.00000E+000	1.27006E-001	0.00000E+000	9	...........	1467.43
	374	6.25	1.25992E-001	-8.94708E-006	0.00000E+000	1.25994E-001	0.00000E+000	9	...........	1467.43
	375	6.26667	1.24998E-001	-9.01046E-006	0.00000E+000	1.24994E-001	0.00000E+000	9	...........	1467.43
	376	6.28333	1.23992E-001	-9.10226E-006	0.00000E+000	1.23995E-001	0.00000E+000	9	...........	1467.43
	377	6.3	1.22998E-001	-9.18819E-006	0.00000E+000	1.22995E-001	0.00000E+000	9	...........	1467.43
	378	6.31667	1.22010E-001	-9.26954E-006	0.00000E+000	1.21995E-001	0.00000E+000	9	...........	1467.43
[...]
	1006	16.7833	2.93977E-001	6.45130E-007	0.00000E+000	2.93998E-001	0.00000E+000	9	...........	1467.52
	1007	16.8	2.92982E-001	5.56967E-007	0.00000E+000	2.92998E-001	0.00000E+000	9	...........	1467.52
	1008	16.8167	2.91984E-001	4.79224E-007	0.00000E+000	2.91999E-001	0.00000E+000	9	...........	1467.52
	1009	16.8333	2.90972E-001	4.13870E-007	0.00000E+000	2.90999E-001	0.00000E+000	9	...........	1467.52
	1010	16.85	2.89992E-001	3.47180E-007	0.00000E+000	2.89999E-001	0.00000E+000	9	...........	1467.52
	1011	16.8667	2.88998E-001	2.71841E-007	0.00000E+000	2.89000E-001	0.00000E+000	9	...........	1467.52
	1012	16.8833	2.88002E-001	1.99240E-007	0.00000E+000	2.88000E-001	0.00000E+000	9	...........	1467.52
	1013	16.9	2.86987E-001	1.37092E-007	0.00000E+000	2.87000E-001	0.00000E+000	9	...........	1467.52
	1014	16.9167	2.85992E-001	7.67472E-008	0.00000E+000	2.86001E-001	0.00000E+000	9	...........	1467.52
	1015	16.9333	2.84999E-001	2.41835E-008	0.00000E+000	2.85001E-001	0.00000E+000	9	...........	1467.52
	1016	16.95	2.84003E-001	-2.77791E-008	0.00000E+000	2.84001E-001	0.00000E+000	9	...........	1467.52
	1017	16.9667	2.82992E-001	-9.11293E-008	0.00000E+000	2.83002E-001	0.00000E+000	9	...........	1467.52
	1018	16.9833	2.81991E-001	-1.53044E-007	0.00000E+000	2.82002E-001	0.00000E+000	9	...........	1467.52
	1019	17	2.80984E-001	-2.08780E-007	0.00000E+000	2.81002E-001	0.00000E+000	9	...........	1467.52
	1020	17.0167	2.79983E-001	-2.54230E-007	0.00000E+000	2.80003E-001	0.00000E+000	9	...........	1467.52
	1021	17.0333	2.78983E-001	-3.01451E-007	0.00000E+000	2.79003E-001	0.00000E+000	9	...........	1467.52
	1022	17.05	2.77991E-001	-3.50074E-007	0.00000E+000	2.78003E-001	0.00000E+000	9	...........	1467.52
	1023	17.0667	2.76995E-001	-4.05877E-007	0.00000E+000	2.77004E-001	0.00000E+000	9	...........	1467.52
	1024	17.0833	2.75997E-001	-4.60745E-007	0.00000E+000	2.76004E-001	0.00000E+000	9	...........	1467.52
	1025	17.1	2.74993E-001	-5.12173E-007	0.00000E+000	2.75004E-001	0.00000E+000	9	...........	1467.52
	1026	17.1167	2.73996E-001	-5.61297E-007	0.00000E+000	2.74005E-001	0.00000E+000	9	...........	1467.52
	1027	17.1333	2.73001E-001	-6.01772E-007	0.00000E+000	2.73005E-001	0.00000E+000	9	...........	1467.52
	1028	17.15	2.72003E-001	-6.48291E-007	0.00000E+000	2.72006E-001	0.00000E+000	9	...........	1467.52
	1029	17.1667	2.71010E-001	-6.95846E-007	0.00000E+000	2.71006E-001	0.00000E+000	9	...........	1467.52
	1030	17.1833	2.70004E-001	-7.59931E-007	0.00000E+000	2.69994E-001	0.00000E+000	9	...........	1467.52
	1031	17.2	2.69012E-001	-8.00739E-007	0.00000E+000	2.68994E-001	0.00000E+000	9	...........	1467.52
	1032	17.2167	2.67968E-001	-8.39143E-007	0.00000E+000	2.67994E-001	0.00000E+000	9	...........	1467.52
	1033	17.2333	2.66974E-001	-8.76813E-007	0.00000E+000	2.66995E-001	0.00000E+000	9	...........	1467.52
	1034	17.25	2.65983E-001	-9.18523E-007	0.00000E+000	2.65995E-001	0.00000E+000	9	...........	1467.52
	1035	17.2667	2.64980E-001	-9.67614E-007	0.00000E+000	2.64995E-001	0.00000E+000	9	...........	1467.52
	1036	17.2833	2.63980E-001	-1.01711E-006	0.00000E+000	2.63996E-001	0.00000E+000	9	...........	1467.52
	1037	17.3	2.62984E-001	-1.06529E-006	0.00000E+000	2.62996E-001	0.00000E+000	9	...........	1467.52
	1038	17.3167	2.61979E-001	-1.10577E-006	0.00000E+000	2.61997E-001	0.00000E+000	9	...........	1467.52
	1039	17.3333	2.60984E-001	-1.14544E-006	0.00000E+000	2.60997E-001	0.00000E+000	9	...........	1467.52
	1040	17.35	2.59982E-001	-1.18264E-006	0.00000E+000	2.59997E-001	0.00000E+000	9	...........	1467.52
	1041	17.3667	2.58987E-001	-1.22846E-006	0.00000E+000	2.58998E-001	0.00000E+000	9	...........	1467.52
	1042	17.3833	2.57989E-001	-1.27338E-006	0.00000E+000	2.57998E-001	0.00000E+000	9	...........	1467.52
	1043	17.4	2.56992E-001	-1.31559E-006	0.00000E+000	2.56998E-001	0.00000E+000	9	...........	1467.52
	1044	17.4167	2.55984E-001	-1.35470E-006	0.00000E+000	2.55999E-001	0.00000E+000	9	...........	1467.52
	1045	17.4333	2.54973E-001	-1.38542E-006	0.00000E+000	2.54999E-001	0.00000E+000	9	...........	1467.52
	1046	17.45	2.53976E-001	-1.42820E-006	0.00000E+000	2.53999E-001	0.00000E+000	9	...........	1467.52
	1047	17.4667	2.52976E-001	-1.47178E-006	0.00000E+000	2.53000E-001	0.00000E+000	9	...........	1467.52
	1048	17.4833	2.51985E-001	-1.51613E-006	0.00000E+000	2.52000E-001	0.00000E+000	9	...........	1467.52
	1049	17.5	2.50999E-001	-1.56081E-006	0.00000E+000	2.51000E-001	0.00000E+000	9	...........	1467.52
	1050	17.5167	2.50000E-001	-1.59824E-006	0.00000E+000	2.50001E-001	0.00000E+000	9	...........	1467.52
	1051	17.5333	2.48993E-001	-1.63364E-006	0.00000E+000	2.49001E-001	0.00000E+000	9	...........	1467.52
	1052	17.55	2.47991E-001	-1.66857E-006	0.00000E+000	2.48001E-001	0.00000E+000	9	...........	1467.52
	1053	17.5667	2.46992E-001	-1.72030E-006	0.00000E+000	2.47002E-001	0.00000E+000	9	...........	1467.52
	1054	17.5833	2.45995E-001	-1.76622E-006	0.00000E+000	2.46002E-001	0.00000E+000	9	...........	1467.52
	1055	17.6	2.44996E-001	-1.80766E-006	0.00000E+000	2.45002E-001	0.00000E+000	9	...........	1467.52
	1056	17.6167	2.44007E-001	-1.84169E-006	0.00000E+000	2.44003E-001	0.00000E+000	9	...........	1467.52
	1057	17.6333	2.42992E-001	-1.88013E-006	0.00000E+000	2.43003E-001	0.00000E+000	9	...........	1467.52
	1058	17.65	2.41985E-001	-1.91957E-006	0.00000E+000	2.42004E-001	0.00000E+000	9	...........	1467.52
	1059	17.6667	2.40978E-001	-1.96502E-006	0.00000E+000	2.41004E-001	0.00000E+000	9	...........	1467.52
	1060	17.6833	2.39989E-001	-2.01448E-006	0.00000E+000	2.40004E-001	0.00000E+000	9	...........	1467.52
	1061	17.7	2.38986E-001	-2.06130E-006	0.00000E+000	2.39005E-001	0.00000E+000	9	...........	1467.52
	1062	17.7167	2.37989E-001	-2.09222E-006	0.00000E+000	2.38005E-001	0.00000E+000	9	...........	1467.52
	1063	17.7333	2.36994E-001	-2.13210E-006	0.00000E+000	2.37005E-001	0.00000E+000	9	...........	1467.52
	1064	17.75	2.35991E-001	-2.17120E-006	0.00000E+000	2.36006E-001	0.00000E+000	9	...........	1467.52
	1065	17.7667	2.34993E-001	-2.21966E-006	0.00000E+000	2.35006E-001	0.00000E+000	9	...........	1467.52
	1066	17.7833	2.33993E-001	-2.27820E-006	0.00000E+000	2.33994E-001	0.00000E+000	9	...........	1467.52
	1067	17.8	2.32991E-001	-2.31918E-006	0.00000E+000	2.32994E-001	0.00000E+000	9	...........	1467.52
	1068	17.8167	2.31995E-001	-2.35444E-006	0.00000E+000	2.31994E-001	0.00000E+000	9	...........	1467.52
	1069	17.8333	2.30990E-001	-2.38910E-006	0.00000E+000	2.30995E-001	0.00000E+000	9	...........	1467.52
	1070	17.85	2.29980E-001	-2.43312E-006	0.00000E+000	2.29995E-001	0.00000E+000	9	...........	1467.52
	1071	17.8667	2.28982E-001	-2.48395E-006	0.00000E+000	2.28996E-001	0.00000E+000	9	...........	1467.52
	1072	17.8833	2.27987E-001	-2.53494E-006	0.00000E+000	2.27996E-001	0.00000E+000	9	...........	1467.52
	1073	17.9	2.26984E-001	-2.58002E-006	0.00000E+000	2.26996E-001	0.00000E+000	9	...........	1467.52
	1074	17.9167	2.25981E-001	-2.62424E-006	0.00000E+000	2.25997E-001	0.00000E+000	9	...........	1467.52
	1075	17.9333	2.24981E-001	-2.66171E-006	0.00000E+000	2.24997E-001	0.00000E+000	9	...........	1467.52
	1076	17.95	2.23993E-001	-2.70412E-006	0.00000E+000	2.23997E-001	0.00000E+000	9	...........	1467.52
	1077	17.9667	2.22991E-001	-2.75541E-006	0.00000E+000	2.22998E-001	0.00000E+000	9	...........	1467.52
	1078	17.9833	2.21992E-001	-2.81506E-006	0.00000E+000	2.21998E-001	0.00000E+000	9	...........	1467.52
	1079	18	2.21002E-001	-2.85794E-006	0.00000E+000	2.20998E-001	0.00000E+000	9	...........	1467.52
	1080	18.0167	2.19994E-001	-2.90499E-006	0.00000E+000	2.19999E-001	0.00000E+000	9	...........	1467.52
	1081	18.0333	2.19000E-001	-2.94600E-006	0.00000E+000	2.18999E-001	0.00000E+000	9	...........	1467.52
	1082	18.05	2.18012E-001	-2.99753E-006	0.00000E+000	2.17999E-001	0.00000E+000	9	...........	1467.52
	1083	18.0667	2.16989E-001	-3.04482E-006	0.00000E+000	2.17000E-001	0.00000E+000	9	...........	1467.52
	1084	18.0833	2.15985E-001	-3.10533E-006	0.00000E+000	2.16000E-001	0.00000E+000	9	...........	1467.52
	1085	18.1	2.14989E-001	-3.14877E-006	0.00000E+000	2.15000E-001	0.00000E+000	9	...........	1467.52
	1086	18.1167	2.13982E-001	-3.19756E-006	0.00000E+000	2.14001E-001	0.00000E+000	9	...........	1467.52
	1087	18.1333	2.12982E-001	-3.24255E-006	0.00000E+000	2.13001E-001	0.00000E+000	9	...........	1467.52
	1088	18.15	2.11995E-001	-3.28282E-006	0.00000E+000	2.12001E-001	0.00000E+000	9	...........	1467.52
	1089	18.1667	2.10992E-001	-3.34153E-006	0.00000E+000	2.11002E-001	0.00000E+000	9	...........	1467.52
	1090	18.1833	2.09990E-001	-3.39266E-006	0.00000E+000	2.10002E-001	0.00000E+000	9	...........	1467.52
	1091	18.2	2.08994E-001	-3.45150E-006	0.00000E+000	2.09003E-001	0.00000E+000	9	...........	1467.52
	1092	18.2167	2.07995E-001	-3.49795E-006	0.00000E+000	2.08003E-001	0.00000E+000	9	...........	1467.52
	1093	18.2333	2.06987E-001	-3.54791E-006	0.00000E+000	2.07003E-001	0.00000E+000	9	...........	1467.52
	1094	18.25	2.06005E-001	-3.59303E-006	0.00000E+000	2.06004E-001	0.00000E+000	9	...........	1467.52
	1095	18.2667	2.05009E-001	-3.64526E-006	0.00000E+000	2.05004E-001	0.00000E+000	9	...........	1467.52
	1096	18.2833	2.04002E-001	-3.70667E-006	0.00000E+000	2.04004E-001	0.00000E+000	9	...........	1467.52
	1097	18.3	2.03001E-001	-3.75803E-006	0.00000E+000	2.03005E-001	0.00000E+000	9	...........	1467.52
	1098	18.3167	2.02004E-001	-3.81373E-006	0.00000E+000	2.02005E-001	0.00000E+000	9	...........	1467.52
	1099	18.3333	2.01007E-001	-3.85805E-006	0.00000E+000	2.01005E-001	0.00000E+000	9	...........	1467.52
	1100	18.35	2.00015E-001	-3.91185E-006	0.00000E+000	2.00006E-001	0.00000E+000	9	...........	1467.52
	1101	18.3667	1.99023E-001	-3.96822E-006	0.00000E+000	1.99006E-001	0.00000E+000	9	...........	1467.52
	1102	18.3833	1.97999E-001	-4.03771E-006	0.00000E+000	1.97994E-001	0.00000E+000	9	...........	1467.52
	1103	18.4	1.97004E-001	-4.09756E-006	0.00000E+000	1.96994E-001	0.00000E+000	9	...........	1467.52
	1104	18.4167	1.96011E-001	-4.14798E-006	0.00000E+000	1.95995E-001	0.00000E+000	9	...........	1467.52
	1105	18.4333	1.95004E-001	-4.19968E-006	0.00000E+000	1.94995E-001	0.00000E+000	9	...........	1467.52
	1106	18.45	1.94018E-001	-4.25465E-006	0.00000E+000	1.93995E-001	0.00000E+000	9	...........	1467.52
	1107	18.4667	1.93025E-001	-4.31115E-006	0.00000E+000	1.92996E-001	0.00000E+000	9	...........	1467.52
	1108	18.4833	1.92023E-001	-4.37968E-006	0.00000E+000	1.91996E-001	0.00000E+000	9	...........	1467.52
	1109	18.5	1.90993E-001	-4.43996E-006	0.00000E+000	1.90996E-001	0.00000E+000	9	...........	1467.52
	1110	18.5167	1.89986E-001	-4.49613E-006	0.00000E+000	1.89997E-001	0.00000E+000	9	...........	1467.52
	1111	18.5333	1.88990E-001	-4.55457E-006	0.00000E+000	1.88997E-001	0.00000E+000	9	...........	1467.52
	1112	18.55	1.88000E-001	-4.61114E-006	0.00000E+000	1.87997E-001	0.00000E+000	9	...........	1467.52
	1113	18.5667	1.86998E-001	-4.67275E-006	0.00000E+000	1.86998E-001	0.00000E+000	9	...........	1467.52
	1114	18.5833	1.85992E-001	-4.73911E-006	0.00000E+000	1.85998E-001	0.00000E+000	9	...........	1467.52
	1115	18.6	1.84988E-001	-4.79732E-006	0.00000E+000	1.84998E-001	0.00000E+000	9	...........	1467.52
	1116	18.6167	1.83996E-001	-4.86067E-006	0.00000E+000	1.83999E-001	0.00000E+000	9	...........	1467.52
	1117	18.6333	1.83007E-001	-4.91557E-006	0.00000E+000	1.82999E-001	0.00000E+000	9	...........	1467.52
	1118	18.65	1.82015E-001	-4.97311E-006	0.00000E+000	1.81999E-001	0.00000E+000	9	...........	1467.52
	1119	18.6667	1.81015E-001	-5.03703E-006	0.00000E+000	1.81000E-001	0.00000E+000	9	...........	1467.52
	1120	18.6833	1.80001E-001	-5.10599E-006	0.00000E+000	1.80000E-001	0.00000E+000	9	...........	1467.52
	1121	18.7	1.78989E-001	-5.17581E-006	0.00000E+000	1.79000E-001	0.00000E+000	9	...........	1467.52
	1122	18.7167	1.77989E-001	-5.23292E-006	0.00000E+000	1.78001E-001	0.00000E+000	9	...........	1467.52
	1123	18.7333	1.76995E-001	-5.29687E-006	0.00000E+000	1.77001E-001	0.00000E+000	9	...........	1467.52
	1124	18.75	1.76003E-001	-5.34874E-006	0.00000E+000	1.76002E-001	0.00000E+000	9	...........	1467.52
	1125	18.7667	1.74998E-001	-5.41262E-006	0.00000E+000	1.75002E-001	0.00000E+000	9	...........	1467.52
	1126	18.7833	1.73999E-001	-5.47944E-006	0.00000E+000	1.74002E-001	0.00000E+000	9	...........	1467.52
	1127	18.8	1.73004E-001	-5.55081E-006	0.00000E+000	1.73003E-001	0.00000E+000	9	...........	1467.52
	1128	18.8167	1.71996E-001	-5.60755E-006	0.00000E+000	1.72003E-001	0.00000E+000	9	...........	1467.52
	1129	18.8333	1.71001E-001	-5.66786E-006	0.00000E+000	1.71003E-001	0.00000E+000	9	...........	1467.52
	1130	18.85	1.70008E-001	-5.73107E-006	0.00000E+000	1.70004E-001	0.00000E+000	9	...........	1467.52
	1131	18.8667	1.69005E-001	-5.79800E-006	0.00000E+000	1.69004E-001	0.00000E+000	9	...........	1467.52
	1132	18.8833	1.68014E-001	-5.87354E-006	0.00000E+000	1.68004E-001	0.00000E+000	9	...........	1467.52
	1133	18.9	1.67013E-001	-5.94370E-006	0.00000E+000	1.67005E-001	0.00000E+000	9	...........	1467.52
	1134	18.9167	1.65979E-001	-6.00755E-006	0.00000E+000	1.66005E-001	0.00000E+000	9	...........	1467.52
	1135	18.9333	1.64981E-001	-6.06506E-006	0.00000E+000	1.65005E-001	0.00000E+000	9	...........	1467.52
	1136	18.95	1.63998E-001	-6.13081E-006	0.00000E+000	1.64006E-001	0.00000E+000	9	...........	1467.52
	1137	18.9667	1.62989E-001	-6.20164E-006	0.00000E+000	1.63006E-001	0.00000E+000	9	...........	1467.52
	1138	18.9833	1.61979E-001	-6.28737E-006	0.00000E+000	1.61994E-001	0.00000E+000	9	...........	1467.52
	1139	19	1.60983E-001	-6.34461E-006	0.00000E+000	1.60994E-001	0.00000E+000	9	...........	1467.52
	1140	19.0167	1.59987E-001	-6.41283E-006	0.00000E+000	1.59995E-001	0.00000E+000	9	...........	1467.52
	1141	19.0333	1.58984E-001	-6.47485E-006	0.00000E+000	1.58995E-001	0.00000E+000	9	...........	1467.52
	1142	19.05	1.57999E-001	-6.53750E-006	0.00000E+000	1.57995E-001	0.00000E+000	9	...........	1467.52
	1143	19.0667	1.57008E-001	-6.60803E-006	0.00000E+000	1.56996E-001	0.00000E+000	9	...........	1467.52
	1144	19.0833	1.56001E-001	-6.68059E-006	0.00000E+000	1.55996E-001	0.00000E+000	9	...........	1467.52
	1145	19.1	1.55003E-001	-6.75403E-006	0.00000E+000	1.54996E-001	0.00000E+000	9	...........	1467.52
	1146	19.1167	1.53993E-001	-6.82372E-006	0.00000E+000	1.53997E-001	0.00000E+000	9	...........	1467.52
	1147	19.1333	1.52974E-001	-6.88397E-006	0.00000E+000	1.52997E-001	0.00000E+000	9	...........	1467.52
	1148	19.15	1.51986E-001	-6.95179E-006	0.00000E+000	1.51997E-001	0.00000E+000	9	...........	1467.52
	1149	19.1667	1.50991E-001	-7.01862E-006	0.00000E+000	1.50998E-001	0.00000E+000	9	...........	1467.52
	1150	19.1833	1.49994E-001	-7.09422E-006	0.00000E+000	1.49998E-001	0.00000E+000	9	...........	1467.52
	1151	19.2	1.48997E-001	-7.16636E-006	0.00000E+000	1.48998E-001	0.00000E+000	9	...........	1467.52
	1152	19.2167	1.48005E-001	-7.23164E-006	0.00000E+000	1.47999E-001	0.00000E+000	9	...........	1467.52
	1153	19.2333	1.47011E-001	-7.29870E-006	0.00000E+000	1.46999E-001	0.00000E+000	9	...........	1467.52
	1154	19.25	1.46001E-001	-7.36990E-006	0.00000E+000	1.46000E-001	0.00000E+000	9	...........	1467.52
	1155	19.2667	1.44998E-001	-7.43859E-006	0.00000E+000	1.45000E-001	0.00000E+000	9	...........	1467.52
	1156	19.2833	1.44004E-001	-7.52385E-006	0.00000E+000	1.44000E-001	0.00000E+000	9	...........	1467.52
	1157	19.3	1.43010E-001	-7.60463E-006	0.00000E+000	1.43001E-001	0.00000E+000	9	...........	1467.52
	1158	19.3167	1.42014E-001	-7.66768E-006	0.00000E+000	1.42001E-001	0.00000E+000	9	...........	1467.52
	1159	19.3333	1.41019E-001	-7.74322E-006	0.00000E+000	1.41001E-001	0.00000E+000	9	...........	1467.52
	1160	19.35	1.39995E-001	-7.80600E-006	0.00000E+000	1.40002E-001	0.00000E+000	9	...........	1467.52
	1161	19.3667	1.38998E-001	-7.87887E-006	0.00000E+000	1.39002E-001	0.00000E+000	9	...........	1467.52
	1162	19.3833	1.37998E-001	-7.96570E-006	0.00000E+000	1.38002E-001	0.00000E+000	9	...........	1467.52
	1163	19.4	1.36992E-001	-8.04164E-006	0.00000E+000	1.37003E-001	0.00000E+000	9	...........	1467.52
	1164	19.4167	1.36000E-001	-8.11554E-006	0.00000E+000	1.36003E-001	0.00000E+000	9	...........	1467.52
	1165	19.4333	1.35002E-001	-8.18697E-006	0.00000E+000	1.35003E-001	0.00000E+000	9	...........	1467.52
	1166	19.45	1.34001E-001	-8.25851E-006	0.00000E+000	1.34004E-001	0.00000E+000	9	...........	1467.52
	1167	19.4667	1.33020E-001	-8.33685E-006	0.00000E+000	1.33004E-001	0.00000E+000	9	...........	1467.52
	1168	19.4833	1.32020E-001	-8.41773E-006	0.00000E+000	1.32004E-001	0.00000E+000	9	...........	1467.52
	1169	19.5	1.31014E-001	-8.50282E-006	0.00000E+000	1.31005E-001	0.00000E+000	9	...........	1467.52
	1170	19.5167	1.30014E-001	-8.58471E-006	0.00000E+000	1.30005E-001	0.00000E+000	9	...........	1467.52
	1171	19.5333	1.29016E-001	-8.65437E-006	0.00000E+000	1.29005E-001	0.00000E+000	9	...........	1467.52
	1172	19.55	1.28016E-001	-8.73615E-006	0.00000E+000	1.28006E-001	0.00000E+000	9	...........	1467.52
	1173	19.5667	1.27002E-001	-8.81246E-006	0.00000E+000	1.27006E-001	0.00000E+000	9	...........	1467.52
	1174	19.5833	1.25988E-001	-8.91559E-006	0.00000E+000	1.25994E-001	0.00000E+000	9	...........	1467.52
	1175	19.6	1.24996E-001	-8.99570E-006	0.00000E+000	1.24994E-001	0.00000E+000	9	...........	1467.52
	1176	19.6167	1.23990E-001	-9.07658E-006	0.00000E+000	1.23995E-001	0.00000E+000	9	...........	1467.66
	1177	19.6333	1.22998E-001	-9.15443E-006	0.00000E+000	1.22995E-001	0.00000E+000	9	...........	1467.79
	1178	19.65	1.22008E-001	-9.23144E-006	0.00000E+000	1.21995E-001	0.00000E+000	9	...........	1467.79
	1179	19.6667	1.21006E-001	-9.31800E-006	0.00000E+000	1.20996E-001	0.00000E+000	9	...........	1467.79
	1180	19.6833	1.20008E-001	-9.41624E-006	0.00000E+000	1.19996E-001	0.00000E+000	9	...........	1467.79
	1181	19.7	1.19014E-001	-9.51149E-006	0.00000E+000	1.18996E-001	0.00000E+000	9	...........	1467.79
	1182	19.7167	1.18009E-001	-9.59334E-006	0.00000E+000	1.17997E-001	0.00000E+000	9	...........	1467.79
	1183	19.7333	1.17019E-001	-9.67465E-006	0.00000E+000	1.16997E-001	0.00000E+000	9	...........	1467.79
	1184	19.75	1.16024E-001	-9.75707E-006	0.00000E+000	1.15997E-001	0.00000E+000	9	...........	1467.79
	1185	19.7667	1.15016E-001	-9.84483E-006	0.00000E+000	1.14998E-001	0.00000E+000	9	...........	1467.79
	1186	19.7833	1.13990E-001	-9.94054E-006	0.00000E+000	1.13998E-001	0.00000E+000	9	...........	1467.79
	1187	19.8	1.12991E-001	-1.00379E-005	0.00000E+000	1.12999E-001	0.00000E+000	9	...........	1467.79
	1188	19.8167	1.11990E-001	-1.01353E-005	0.00000E+000	1.11999E-001	0.00000E+000	9	...........	1467.79
	1189	19.8333	1.10999E-001	-1.02179E-005	0.00000E+000	1.10999E-001	0.00000E+000	9	...........	1467.79
	1190	19.85	1.10004E-001	-1.03015E-005	0.00000E+000	1.10000E-001	0.00000E+000	9	...........	1467.79
	1191	19.8667	1.09010E-001	-1.03968E-005	0.00000E+000	1.09000E-001	0.00000E+000	9	...........	1467.79
	1192	19.8833	1.07997E-001	-1.05018E-005	0.00000E+000	1.08000E-001	0.00000E+000	9	...........	1467.79
	1193	19.9	1.07002E-001	-1.06007E-005	0.00000E+000	1.07001E-001	0.00000E+000	9	...........	1467.79
	1194	19.9167	1.06011E-001	-1.06958E-005	0.00000E+000	1.06001E-001	0.00000E+000	9	...........	1467.79
	1195	19.9333	1.05009E-001	-1.07813E-005	0.00000E+000	1.05001E-001	0.00000E+000	9	...........	1467.79
	1196	19.95	1.04025E-001	-1.08740E-005	0.00000E+000	1.04002E-001	0.00000E+000	9	...........	1467.79
	1197	19.9667	1.03031E-001	-1.09615E-005	0.00000E+000	1.03002E-001	0.00000E+000	9	...........	1467.79
	1198	19.9833	1.02014E-001	-1.10683E-005	0.00000E+000	1.02002E-001	0.00000E+000	9	...........	1467.79
	1199	20	1.01016E-001	-1.11673E-005	0.00000E+000	1.01003E-001	0.00000E+000	9	...........	1467.79
	1200	20.0167	1.00023E-001	-1.12617E-005	0.00000E+000	1.00003E-001	0.00000E+000	9	...........	1467.79
CURVE4	TABLE
	Pt	T	Vf	Im	Vu	Sig	Ach	IERange	Over	Temp
	#	s	V vs. Ref.	A	V	V	V	#	bits	deg C
	1201	20.0333	9.99986E-002	-1.03797E-005	0.00000E+000	1.00003E-001	0.00000E+000	9	...........	1467.79