File: input/ECSA_test/CV_ECSA_#1_#4.DTA
EXPLAIN
TAG	CV
TITLE	LABEL	ECSA	Test Identifier
DATE	LABEL	2/13/2024	Date
TIME	LABEL	8:48:41	Time
NOTES	NOTES	1	Notes...

PSTAT	PSTAT	IFC1010-36068	Potentiostat
VINIT	POTEN	1.00000E-001	F	Initial E (V)
VLIMIT1	POTEN	3.00000E-001	F	Scan Limit 1 (V)
VLIMIT2	POTEN	1.00000E-001	F	Scan Limit 2 (V)
VFINAL	POTEN	1.00000E-001	F	Final E (V)
SCANRATE	QUANT	3.99999E+001	A Real Number
STEPSIZE	QUANT	1.00000E+000	Step Size (mV)
CYCLES	IQUANT	3	Cycles (#)
IMODE	SELECTOR	1	I/E Range Mode
IRANGE	QUANT	3.00000E-001	Max Current (mA)
AREA	QUANT	1.00000E+000	Sample Area (cm^2)
EQDELAY	QUANT	0.00000E+000	Equil. Time (s)
IRCOMP	SELECTOR	0	IRComp
PFCOR	QUANT	5.00000E+001	PF Corr. (ohm)
SAMPLINGMODE	SELECTOR	2	Sampling Mode
EOC	QUANT	0.3246219	Open Circuit (V)
ELECTRODETYPE	SELECTOR	0	Electrode Type
STRIPPING	TOGGLE	F	Used for Stripping
SEQUENCER	TOGGLE	TRUE	Run as Sequence
PSTATMODEL	IQUANT	64	Pstat Model
PSTATSECTION	LABEL	IFC1010-36068	Pstat Section
PSTATSERIALNO	LABEL	36068	Pstat Serial Number
CTRLMODE	IQUANT	1	Control Mode
ELECTROMETER	IQUANT	0	RE=0 or CS=1
IESTAB	IQUANT	2	I/E Stability
CASPEED	IQUANT	4	Control Amp Speed
CONVENTION	IQUANT	1	Current Convention
ICHRANGE	IQUANT	2	Ich Range
ICHRANGEMODE	TOGGLE	F	Ich Auto Range
ICHOFFSETENABLE	TOGGLE	F	Ich Offset Enable
ICHOFFSET	QUANT	0	Ich Offset (V)
ICHFILTER	IQUANT	3	Ich Filter
VCHRANGE	IQUANT	2	Vch Range
VCHRANGEMODE	TOGGLE	F	Vch Auto Range
VCHOFFSETENABLE	TOGGLE	F	Vch Offset Enable
VCHOFFSET	QUANT	0	Vch Offset (V)
VCHFILTER	IQUANT	3	Vch Filter
IERANGELOWERLIMIT	IQUANT	4	I/E Range Lower Limit
IERANGEMODE	TOGGLE	F	I/E AutoRange
IERANGE	IQUANT	9	I/E Range
ACHSELECT	IQUANT	0	Ach Select
ACHRANGE	IQUANT	2	Ach Range
ACHOFFSETENABLE	TOGGLE	F	Ach Offset Enable
ACHOFFSET	QUANT	0	Ach Offset (V)
ACHFILTER	IQUANT	1	Ach Filter
SENSECABLEID	IQUANT	13	Sense Cable ID
PWRCABLEID	IQUANT	13	Power Cable ID
DCCALDATE	LABEL	8/11/2023	DC Calibration Date
ACCALDATE	LABEL	6/2/2023	AC Calibration Date
FRAMEWORKVERSION	LABEL	7.10.3	Framework Version
INSTRUMENTVERSION	LABEL	4.91	Instrument Version
COMMVERSION	LABEL	3.10	Communications Version
CPUPLDVERSION	LABEL	2.22	CPU PLD Version
CTRLPLDVERSION	LABEL	0.00	CTRL PLD Version
PSTATPLDVERSION	LABEL	0.00	PSTAT PLD Version
CURVE1	TABLE
	Pt	T	Vf	Im	Vu	Sig	Ach	IERange	Over	Temp
	#	s	V vs. Ref.	A	V	V	V	#	bits	deg C
	0	0.025	9.99963E-002	-9.85001E-006	0.00000E+000	1.00003E-001	0.00000E+000	9	...........	1467.79
	1	0.05	1.00985E-001	-8.97896E-006	0.00000E+000	1.01003E-001	0.00000E+000	9	...........	1467.79
	2	0.075	1.01981E-001	-8.75779E-006	0.00000E+000	1.02002E-001	0.00000E+000	9	...........	1467.79
	3	0.1	1.03004E-001	-8.58242E-006	0.00000E+000	1.03002E-001	0.00000E+000	9	...........	1467.79
	4	0.125	1.03997E-001	-8.41783E-006	0.00000E+000	1.04002E-001	0.00000E+000	9	...........	1467.79
	5	0.15	1.04981E-001	-8.25328E-006	0.00000E+000	1.05001E-001	0.00000E+000	9	...........	1467.79
	6	0.175	1.05983E-001	-8.11158E-006	0.00000E+000	1.06001E-001	0.00000E+000	9	...........	1467.79
	7	0.2	1.06982E-001	-7.98078E-006	0.00000E+000	1.07001E-001	0.00000E+000	9	...........	1467.79
	8	0.225	1.07980E-001	-7.83534E-006	0.00000E+000	1.08000E-001	0.00000E+000	9	...........	1467.79
	9	0.25	1.08984E-001	-7.69511E-006	0.00000E+000	1.09000E-001	0.00000E+000	9	...........	1467.79
	10	0.275	1.09981E-001	-7.56696E-006	0.00000E+000	1.10000E-001	0.00000E+000	9	...........	1467.79
	11	0.3	1.10975E-001	-7.44484E-006	0.00000E+000	1.10999E-001	0.00000E+000	9	...........	1467.79
	12	0.325	1.11967E-001	-7.31050E-006	0.00000E+000	1.11999E-001	0.00000E+000	9	...........	1467.79
	13	0.35	1.12962E-001	-7.18366E-006	0.00000E+000	1.12999E-001	0.00000E+000	9	...........	1467.79
	14	0.375	1.13959E-001	-7.06766E-006	0.00000E+000	1.13998E-001	0.00000E+000	9	...........	1467.79
	15	0.4	1.14974E-001	-6.95479E-006	0.00000E+000	1.14998E-001	0.00000E+000	9	...........	1467.79
	16	0.425	1.15984E-001	-6.83750E-006	0.00000E+000	1.15997E-001	0.00000E+000	9	...........	1467.79
	17	0.45	1.16975E-001	-6.71723E-006	0.00000E+000	1.16997E-001	0.00000E+000	9	...........	1467.79
	18	0.475	1.17969E-001	-6.60999E-006	0.00000E+000	1.17997E-001	0.00000E+000	9	...........	1467.79
	19	0.5	1.18972E-001	-6.50540E-006	0.00000E+000	1.18996E-001	0.00000E+000	9	...........	1467.79
	20	0.525	1.19972E-001	-6.39476E-006	0.00000E+000	1.19996E-001	0.00000E+000	9	...........	1467.79
	21	0.55	1.20970E-001	-6.28236E-006	0.00000E+000	1.20996E-001	0.00000E+000	9	...........	1467.79
	22	0.575	1.21976E-001	-6.18700E-006	0.00000E+000	1.21995E-001	0.00000E+000	9	...........	1467.79
	23	0.6	1.22963E-001	-6.09262E-006	0.00000E+000	1.22995E-001	0.00000E+000	9	...........	1467.79
	24	0.625	1.23963E-001	-5.98532E-006	0.00000E+000	1.23995E-001	0.00000E+000	9	...........	1467.79
	25	0.65	1.24968E-001	-5.88095E-006	0.00000E+000	1.24994E-001	0.00000E+000	9	...........	1467.79
	26	0.675	1.25969E-001	-5.78857E-006	0.00000E+000	1.25994E-001	0.00000E+000	9	...........	1467.79
	27	0.7	1.26983E-001	-5.69244E-006	0.00000E+000	1.27006E-001	0.00000E+000	9	...........	1467.79
	28	0.725	1.27996E-001	-5.60420E-006	0.00000E+000	1.28006E-001	0.00000E+000	9	...........	1467.79
	29	0.75	1.28998E-001	-5.50444E-006	0.00000E+000	1.29005E-001	0.00000E+000	9	...........	1467.79
	30	0.775	1.29994E-001	-5.41883E-006	0.00000E+000	1.30005E-001	0.00000E+000	9	...........	1467.79
	31	0.8	1.31001E-001	-5.33675E-006	0.00000E+000	1.31005E-001	0.00000E+000	9	...........	1467.79
	32	0.825	1.32000E-001	-5.23930E-006	0.00000E+000	1.32004E-001	0.00000E+000	9	...........	1467.79
	33	0.85	1.32991E-001	-5.14880E-006	0.00000E+000	1.33004E-001	0.00000E+000	9	...........	1467.79
	34	0.875	1.33984E-001	-5.07553E-006	0.00000E+000	1.34004E-001	0.00000E+000	9	...........	1467.79
	35	0.9	1.34977E-001	-4.99526E-006	0.00000E+000	1.35003E-001	0.00000E+000	9	...........	1467.73
	36	0.925	1.35968E-001	-4.90571E-006	0.00000E+000	1.36003E-001	0.00000E+000	9	...........	1467.61
	37	0.95	1.36964E-001	-4.81669E-006	0.00000E+000	1.37003E-001	0.00000E+000	9	...........	1467.61
	38	0.975	1.37973E-001	-4.74023E-006	0.00000E+000	1.38002E-001	0.00000E+000	9	...........	1467.61
	39	1	1.38971E-001	-4.67021E-006	0.00000E+000	1.39002E-001	0.00000E+000	9	...........	1467.61
	40	1.025	1.39970E-001	-4.58302E-006	0.00000E+000	1.40002E-001	0.00000E+000	9	...........	1467.61
	41	1.05	1.40993E-001	-4.50446E-006	0.00000E+000	1.41001E-001	0.00000E+000	9	...........	1467.61
	42	1.075	1.41993E-001	-4.43311E-006	0.00000E+000	1.42001E-001	0.00000E+000	9	...........	1467.61
	43	1.1	1.42989E-001	-4.36654E-006	0.00000E+000	1.43001E-001	0.00000E+000	9	...........	1467.61
	44	1.125	1.43981E-001	-4.28264E-006	0.00000E+000	1.44000E-001	0.00000E+000	9	...........	1467.61
	45	1.15	1.44974E-001	-4.20097E-006	0.00000E+000	1.45000E-001	0.00000E+000	9	...........	1467.61
	46	1.175	1.45964E-001	-4.13549E-006	0.00000E+000	1.46000E-001	0.00000E+000	9	...........	1467.61
	47	1.2	1.46965E-001	-4.06912E-006	0.00000E+000	1.46999E-001	0.00000E+000	9	...........	1467.61
	48	1.225	1.47967E-001	-3.98914E-006	0.00000E+000	1.47999E-001	0.00000E+000	9	...........	1467.61
	49	1.25	1.48967E-001	-3.92257E-006	0.00000E+000	1.48998E-001	0.00000E+000	9	...........	1467.61
	50	1.275	1.49972E-001	-3.85234E-006	0.00000E+000	1.49998E-001	0.00000E+000	9	...........	1467.61
	51	1.3	1.50971E-001	-3.78094E-006	0.00000E+000	1.50998E-001	0.00000E+000	9	...........	1467.61
	52	1.325	1.51963E-001	-3.70496E-006	0.00000E+000	1.51997E-001	0.00000E+000	9	...........	1467.61
	53	1.35	1.52953E-001	-3.63321E-006	0.00000E+000	1.52997E-001	0.00000E+000	9	...........	1467.61
	54	1.375	1.53966E-001	-3.57403E-006	0.00000E+000	1.53997E-001	0.00000E+000	9	...........	1467.61
	55	1.4	1.54978E-001	-3.50728E-006	0.00000E+000	1.54996E-001	0.00000E+000	9	...........	1467.61
	56	1.425	1.55966E-001	-3.43669E-006	0.00000E+000	1.55996E-001	0.00000E+000	9	...........	1467.61
	57	1.45	1.56983E-001	-3.36534E-006	0.00000E+000	1.56996E-001	0.00000E+000	9	...........	1467.61
	58	1.475	1.57981E-001	-3.30616E-006	0.00000E+000	1.57995E-001	0.00000E+000	9	...........	1467.61
	59	1.5	1.58960E-001	-3.24762E-006	0.00000E+000	1.58995E-001	0.00000E+000	9	...........	1467.61
	60	1.525	1.59963E-001	-3.17349E-006	0.00000E+000	1.59995E-001	0.00000E+000	9	...........	1467.61
	61	1.55	1.60955E-001	-3.10968E-006	0.00000E+000	1.60994E-001	0.00000E+000	9	...........	1467.61
	62	1.575	1.61952E-001	-3.05526E-006	0.00000E+000	1.61994E-001	0.00000E+000	9	...........	1467.61
	63	1.6	1.62966E-001	-2.98313E-006	0.00000E+000	1.63006E-001	0.00000E+000	9	...........	1467.61
	64	1.625	1.63974E-001	-2.91694E-006	0.00000E+000	1.64006E-001	0.00000E+000	9	...........	1467.61
	65	1.65	1.64967E-001	-2.85387E-006	0.00000E+000	1.65005E-001	0.00000E+000	9	...........	1467.61
	66	1.675	1.65962E-001	-2.80234E-006	0.00000E+000	1.66005E-001	0.00000E+000	9	...........	1467.61
	67	1.7	1.66992E-001	-2.74661E-006	0.00000E+000	1.67005E-001	0.00000E+000	9	...........	1467.61
	68	1.725	1.67988E-001	-2.67172E-006	0.00000E+000	1.68004E-001	0.00000E+000	9	...........	1467.61
	69	1.75	1.68987E-001	-2.61270E-006	0.00000E+000	1.69004E-001	0.00000E+000	9	...........	1467.61
	70	1.775	1.69990E-001	-2.56493E-006	0.00000E+000	1.70004E-001	0.00000E+000	9	...........	1467.61
	71	1.8	1.70975E-001	-2.50564E-006	0.00000E+000	1.71003E-001	0.00000E+000	9	...........	1467.61
	72	1.825	1.71969E-001	-2.43780E-006	0.00000E+000	1.72003E-001	0.00000E+000	9	...........	1467.61
	73	1.85	1.72983E-001	-2.38165E-006	0.00000E+000	1.73003E-001	0.00000E+000	9	...........	1467.61
	74	1.875	1.73981E-001	-2.33152E-006	0.00000E+000	1.74002E-001	0.00000E+000	9	...........	1467.61
	75	1.9	1.74971E-001	-2.27385E-006	0.00000E+000	1.75002E-001	0.00000E+000	9	...........	1467.67
	76	1.925	1.75975E-001	-2.20544E-006	0.00000E+000	1.76002E-001	0.00000E+000	9	...........	1467.79
	77	1.95	1.76962E-001	-2.15111E-006	0.00000E+000	1.77001E-001	0.00000E+000	9	...........	1467.79
	78	1.975	1.77956E-001	-2.10492E-006	0.00000E+000	1.78001E-001	0.00000E+000	9	...........	1467.79
	79	2	1.78957E-001	-2.04625E-006	0.00000E+000	1.79000E-001	0.00000E+000	9	...........	1467.79
	80	2.025	1.79967E-001	-1.98698E-006	0.00000E+000	1.80000E-001	0.00000E+000	9	...........	1467.79
	81	2.05	1.80980E-001	-1.93056E-006	0.00000E+000	1.81000E-001	0.00000E+000	9	...........	1467.79
	82	2.075	1.81983E-001	-1.88673E-006	0.00000E+000	1.81999E-001	0.00000E+000	9	...........	1467.79
	83	2.1	1.82975E-001	-1.82530E-006	0.00000E+000	1.82999E-001	0.00000E+000	9	...........	1467.79
	84	2.125	1.83968E-001	-1.76103E-006	0.00000E+000	1.83999E-001	0.00000E+000	9	...........	1467.79
	85	2.15	1.84971E-001	-1.70420E-006	0.00000E+000	1.84998E-001	0.00000E+000	9	...........	1467.79
	86	2.175	1.85979E-001	-1.66048E-006	0.00000E+000	1.85998E-001	0.00000E+000	9	...........	1467.79
	87	2.2	1.86977E-001	-1.60756E-006	0.00000E+000	1.86998E-001	0.00000E+000	9	...........	1467.79
	88	2.225	1.87973E-001	-1.54379E-006	0.00000E+000	1.87997E-001	0.00000E+000	9	...........	1467.79
	89	2.25	1.88966E-001	-1.49258E-006	0.00000E+000	1.88997E-001	0.00000E+000	9	...........	1467.79
	90	2.275	1.89958E-001	-1.44750E-006	0.00000E+000	1.89997E-001	0.00000E+000	9	...........	1467.79
	91	2.3	1.90961E-001	-1.39826E-006	0.00000E+000	1.90996E-001	0.00000E+000	9	...........	1467.79
	92	2.325	1.91999E-001	-1.33813E-006	0.00000E+000	1.91996E-001	0.00000E+000	9	...........	1467.79
	93	2.35	1.92997E-001	-1.28184E-006	0.00000E+000	1.92996E-001	0.00000E+000	9	...........	1467.79
	94	2.375	1.93990E-001	-1.24680E-006	0.00000E+000	1.93995E-001	0.00000E+000	9	...........	1467.79
	95	2.4	1.94974E-001	-1.19073E-006	0.00000E+000	1.94995E-001	0.00000E+000	9	...........	1467.79
	96	2.425	1.95973E-001	-1.12848E-006	0.00000E+000	1.95995E-001	0.00000E+000	9	...........	1467.79
	97	2.45	1.96968E-001	-1.08421E-006	0.00000E+000	1.96994E-001	0.00000E+000	9	...........	1467.79
	98	2.475	1.97962E-001	-1.04309E-006	0.00000E+000	1.97994E-001	0.00000E+000	9	...........	1467.79
	99	2.5	1.98985E-001	-9.84643E-007	0.00000E+000	1.99006E-001	0.00000E+000	9	...........	1467.79
	100	2.525	1.99982E-001	-9.41882E-007	0.00000E+000	2.00006E-001	0.00000E+000	9	...........	1467.79
	101	2.55	2.00973E-001	-8.93736E-007	0.00000E+000	2.01005E-001	0.00000E+000	9	...........	1467.79
	102	2.575	2.01968E-001	-8.52599E-007	0.00000E+000	2.02005E-001	0.00000E+000	9	...........	1467.79
	103	2.6	2.02969E-001	-8.06211E-007	0.00000E+000	2.03005E-001	0.00000E+000	9	...........	1467.79
	104	2.625	2.03973E-001	-7.48342E-007	0.00000E+000	2.04004E-001	0.00000E+000	9	...........	1467.79
	105	2.65	2.04987E-001	-7.04113E-007	0.00000E+000	2.05004E-001	0.00000E+000	9	...........	1467.79
	106	2.675	2.05982E-001	-6.67692E-007	0.00000E+000	2.06004E-001	0.00000E+000	9	...........	1467.79
	107	2.7	2.06967E-001	-6.19034E-007	0.00000E+000	2.07003E-001	0.00000E+000	9	...........	1467.79
	108	2.725	2.07974E-001	-5.64147E-007	0.00000E+000	2.08003E-001	0.00000E+000	9	...........	1467.79
	109	2.75	2.08968E-001	-5.18761E-007	0.00000E+000	2.09003E-001	0.00000E+000	9	...........	1467.79
	110	2.775	2.09964E-001	-4.85677E-007	0.00000E+000	2.10002E-001	0.00000E+000	9	...........	1467.79
	111	2.8	2.10964E-001	-4.31257E-007	0.00000E+000	2.11002E-001	0.00000E+000	9	...........	1467.79
	112	2.825	2.11972E-001	-3.85136E-007	0.00000E+000	2.12001E-001	0.00000E+000	9	...........	1467.79
	113	2.85	2.12959E-001	-3.42798E-007	0.00000E+000	2.13001E-001	0.00000E+000	9	...........	1467.79
	114	2.875	2.13961E-001	-3.06955E-007	0.00000E+000	2.14001E-001	0.00000E+000	9	...........	1467.79
	115	2.9	2.14962E-001	-2.61279E-007	0.00000E+000	2.15000E-001	0.00000E+000	9	...........	1467.79
	116	2.925	2.15962E-001	-2.09062E-007	0.00000E+000	2.16000E-001	0.00000E+000	9	...........	1467.79
	117	2.95	2.16956E-001	-1.69260E-007	0.00000E+000	2.17000E-001	0.00000E+000	9	...........	1467.79
	118	2.975	2.17984E-001	-1.45943E-007	0.00000E+000	2.17999E-001	0.00000E+000	9	...........	1467.79
	119	3	2.18972E-001	-9.27249E-008	0.00000E+000	2.18999E-001	0.00000E+000	9	...........	1467.79
	120	3.025	2.19960E-001	-4.44903E-008	0.00000E+000	2.19999E-001	0.00000E+000	9	...........	1467.79
	121	3.05	2.20969E-001	-3.59758E-009	0.00000E+000	2.20998E-001	0.00000E+000	9	...........	1467.79
	122	3.075	2.21966E-001	2.87739E-008	0.00000E+000	2.21998E-001	0.00000E+000	9	...........	1467.79
	123	3.1	2.22962E-001	6.87099E-008	0.00000E+000	2.22998E-001	0.00000E+000	9	...........	1467.79
	124	3.125	2.23966E-001	1.14608E-007	0.00000E+000	2.23997E-001	0.00000E+000	9	...........	1467.79
	125	3.15	2.24955E-001	1.53232E-007	0.00000E+000	2.24997E-001	0.00000E+000	9	...........	1467.79
	126	3.175	2.25953E-001	1.83512E-007	0.00000E+000	2.25997E-001	0.00000E+000	9	...........	1467.79
	127	3.2	2.26960E-001	2.27364E-007	0.00000E+000	2.26996E-001	0.00000E+000	9	...........	1467.79
	128	3.225	2.27963E-001	2.73774E-007	0.00000E+000	2.27996E-001	0.00000E+000	9	...........	1467.79
	129	3.25	2.28960E-001	3.07792E-007	0.00000E+000	2.28996E-001	0.00000E+000	9	...........	1467.79
	130	3.275	2.29951E-001	3.39652E-007	0.00000E+000	2.29995E-001	0.00000E+000	9	...........	1467.79
	131	3.3	2.30960E-001	3.83904E-007	0.00000E+000	2.30995E-001	0.00000E+000	9	...........	1467.79
	132	3.325	2.31964E-001	4.29135E-007	0.00000E+000	2.31994E-001	0.00000E+000	9	...........	1467.79
	133	3.35	2.32959E-001	4.65044E-007	0.00000E+000	2.32994E-001	0.00000E+000	9	...........	1467.79
	134	3.375	2.33960E-001	4.91030E-007	0.00000E+000	2.33994E-001	0.00000E+000	9	...........	1467.79
	135	3.4	2.34967E-001	5.42780E-007	0.00000E+000	2.35006E-001	0.00000E+000	9	...........	1467.79
	136	3.425	2.35965E-001	5.77621E-007	0.00000E+000	2.36006E-001	0.00000E+000	9	...........	1467.79
	137	3.45	2.36969E-001	6.11995E-007	0.00000E+000	2.37005E-001	0.00000E+000	9	...........	1467.79
	138	3.475	2.37959E-001	6.41986E-007	0.00000E+000	2.38005E-001	0.00000E+000	9	...........	1467.79
	139	3.5	2.38959E-001	6.80253E-007	0.00000E+000	2.39005E-001	0.00000E+000	9	...........	1467.79
	140	3.525	2.39969E-001	7.23949E-007	0.00000E+000	2.40004E-001	0.00000E+000	9	...........	1467.79
	141	3.55	2.40954E-001	7.51092E-007	0.00000E+000	2.41004E-001	0.00000E+000	9	...........	1467.79
	142	3.575	2.41958E-001	7.74765E-007	0.00000E+000	2.42004E-001	0.00000E+000	9	...........	1467.79
	143	3.6	2.42973E-001	8.12632E-007	0.00000E+000	2.43003E-001	0.00000E+000	9	...........	1467.79
	144	3.625	2.43992E-001	8.49809E-007	0.00000E+000	2.44003E-001	0.00000E+000	9	...........	1467.79
	145	3.65	2.44989E-001	8.81980E-007	0.00000E+000	2.45002E-001	0.00000E+000	9	...........	1467.79
	146	3.675	2.45980E-001	9.05052E-007	0.00000E+000	2.46002E-001	0.00000E+000	9	...........	1467.79
	147	3.7	2.46973E-001	9.43386E-007	0.00000E+000	2.47002E-001	0.00000E+000	9	...........	1467.79
	148	3.725	2.47971E-001	9.78472E-007	0.00000E+000	2.48001E-001	0.00000E+000	9	...........	1467.79
	149	3.75	2.48962E-001	1.00866E-006	0.00000E+000	2.49001E-001	0.00000E+000	9	...........	1467.79
	150	3.775	2.49966E-001	1.03238E-006	0.00000E+000	2.50001E-001	0.00000E+000	9	...........	1467.79
	151	3.8	2.50965E-001	1.07002E-006	0.00000E+000	2.51000E-001	0.00000E+000	9	...........	1467.79
	152	3.825	2.51958E-001	1.10811E-006	0.00000E+000	2.52000E-001	0.00000E+000	9	...........	1467.79
	153	3.85	2.52949E-001	1.13463E-006	0.00000E+000	2.53000E-001	0.00000E+000	9	...........	1467.79
	154	3.875	2.53941E-001	1.16209E-006	0.00000E+000	2.53999E-001	0.00000E+000	9	...........	1467.79
	155	3.9	2.54941E-001	1.19920E-006	0.00000E+000	2.54999E-001	0.00000E+000	9	...........	1467.79
	156	3.925	2.55961E-001	1.23435E-006	0.00000E+000	2.55999E-001	0.00000E+000	9	...........	1467.79
	157	3.95	2.56971E-001	1.25753E-006	0.00000E+000	2.56998E-001	0.00000E+000	9	...........	1467.79
	158	3.975	2.57962E-001	1.27658E-006	0.00000E+000	2.57998E-001	0.00000E+000	9	...........	1467.79
	159	4	2.58962E-001	1.31291E-006	0.00000E+000	2.58998E-001	0.00000E+000	9	...........	1467.79
	160	4.025	2.59955E-001	1.35242E-006	0.00000E+000	2.59997E-001	0.00000E+000	9	...........	1467.79
	161	4.05	2.60957E-001	1.37565E-006	0.00000E+000	2.60997E-001	0.00000E+000	9	...........	1467.79
	162	4.075	2.61952E-001	1.39988E-006	0.00000E+000	2.61997E-001	0.00000E+000	9	...........	1467.79
	163	4.1	2.62957E-001	1.43755E-006	0.00000E+000	2.62996E-001	0.00000E+000	9	...........	1467.79
	164	4.125	2.63956E-001	1.46867E-006	0.00000E+000	2.63996E-001	0.00000E+000	9	...........	1467.79
	165	4.15	2.64958E-001	1.48892E-006	0.00000E+000	2.64995E-001	0.00000E+000	9	...........	1467.79
	166	4.175	2.65963E-001	1.51786E-006	0.00000E+000	2.65995E-001	0.00000E+000	9	...........	1467.79
	167	4.2	2.66953E-001	1.55146E-006	0.00000E+000	2.66995E-001	0.00000E+000	9	...........	1467.79
	168	4.225	2.67953E-001	1.58848E-006	0.00000E+000	2.67994E-001	0.00000E+000	9	...........	1467.79
	169	4.25	2.68986E-001	1.60957E-006	0.00000E+000	2.68994E-001	0.00000E+000	9	...........	1467.79
	170	4.275	2.69983E-001	1.63271E-006	0.00000E+000	2.69994E-001	0.00000E+000	9	...........	1467.79
	171	4.3	2.70988E-001	1.67801E-006	0.00000E+000	2.71006E-001	0.00000E+000	9	...........	1467.79
	172	4.325	2.71979E-001	1.70680E-006	0.00000E+000	2.72006E-001	0.00000E+000	9	...........	1467.79
	173	4.35	2.72972E-001	1.73294E-006	0.00000E+000	2.73005E-001	0.00000E+000	9	...........	1467.79
	174	4.375	2.73966E-001	1.74709E-006	0.00000E+000	2.74005E-001	0.00000E+000	9	...........	1467.79
	175	4.4	2.74964E-001	1.78743E-006	0.00000E+000	2.75004E-001	0.00000E+000	9	...........	1467.79
	176	4.425	2.75968E-001	1.81917E-006	0.00000E+000	2.76004E-001	0.00000E+000	9	...........	1467.79
	177	4.45	2.76974E-001	1.84320E-006	0.00000E+000	2.77004E-001	0.00000E+000	9	...........	1467.79
	178	4.475	2.77975E-001	1.86603E-006	0.00000E+000	2.78003E-001	0.00000E+000	9	...........	1467.79
	179	4.5	2.78963E-001	1.89860E-006	0.00000E+000	2.79003E-001	0.00000E+000	9	...........	1467.79
	180	4.525	2.79956E-001	1.93749E-006	0.00000E+000	2.80003E-001	0.00000E+000	9	...........	1467.79
	181	4.55	2.80949E-001	1.95929E-006	0.00000E+000	2.81002E-001	0.00000E+000	9	...........	1467.79
	182	4.575	2.81961E-001	1.98357E-006	0.00000E+000	2.82002E-001	0.00000E+000	9	...........	1467.79
	183	4.6	2.82970E-001	2.01525E-006	0.00000E+000	2.83002E-001	0.00000E+000	9	...........	1467.79
	184	4.625	2.83977E-001	2.05060E-006	0.00000E+000	2.84001E-001	0.00000E+000	9	...........	1467.79
	185	4.65	2.84970E-001	2.07574E-006	0.00000E+000	2.85001E-001	0.00000E+000	9	...........	1467.79
	186	4.675	2.85968E-001	2.09445E-006	0.00000E+000	2.86001E-001	0.00000E+000	9	...........	1467.79
	187	4.7	2.86961E-001	2.12809E-006	0.00000E+000	2.87000E-001	0.00000E+000	9	...........	1467.79
	188	4.725	2.87972E-001	2.16823E-006	0.00000E+000	2.88000E-001	0.00000E+000	9	...........	1467.79
	189	4.75	2.88970E-001	2.18347E-006	0.00000E+000	2.89000E-001	0.00000E+000	9	...........	1467.79
	190	4.775	2.89970E-001	2.20610E-006	0.00000E+000	2.89999E-001	0.00000E+000	9	...........	1467.79
	191	4.8	2.90955E-001	2.23936E-006	0.00000E+000	2.90999E-001	0.00000E+000	9	...........	1467.79
	192	4.825	2.91958E-001	2.27333E-006	0.00000E+000	2.91999E-001	0.00000E+000	9	...........	1467.79
	193	4.85	2.92952E-001	2.29324E-006	0.00000E+000	2.92998E-001	0.00000E+000	9	...........	1467.79
	194	4.875	2.93949E-001	2.31442E-006	0.00000E+000	2.93998E-001	0.00000E+000	9	...........	1467.79
	195	4.9	2.94988E-001	2.35385E-006	0.00000E+000	2.94998E-001	0.00000E+000	9	...........	1467.79
	196	4.925	2.95982E-001	2.38758E-006	0.00000E+000	2.95997E-001	0.00000E+000	9	...........	1467.79
	197	4.95	2.96973E-001	2.41081E-006	0.00000E+000	2.96997E-001	0.00000E+000	9	...........	1467.79
	198	4.975	2.97978E-001	2.44019E-006	0.00000E+000	2.97996E-001	0.00000E+000	9	...........	1467.79
	199	5	2.98975E-001	2.47123E-006	0.00000E+000	2.98996E-001	0.00000E+000	9	...........	1467.79
	200	5.025	2.99978E-001	2.50721E-006	0.00000E+000	2.99996E-001	0.00000E+000	9	...........	1467.79
	201	5.05	2.98993E-001	1.25380E-006	0.00000E+000	2.98996E-001	0.00000E+000	9	...........	1467.79
	202	5.075	2.97996E-001	1.07935E-006	0.00000E+000	2.97996E-001	0.00000E+000	9	...........	1467.79
	203	5.1	2.96989E-001	9.65478E-007	0.00000E+000	2.96997E-001	0.00000E+000	9	...........	1467.79
	204	5.125	2.95999E-001	8.63113E-007	0.00000E+000	2.95997E-001	0.00000E+000	9	...........	1467.79
	205	5.15	2.95006E-001	7.70871E-007	0.00000E+000	2.94998E-001	0.00000E+000	9	...........	1467.79
	206	5.175	2.93975E-001	6.80698E-007	0.00000E+000	2.93998E-001	0.00000E+000	9	...........	1467.79
	207	5.2	2.92978E-001	6.15132E-007	0.00000E+000	2.92998E-001	0.00000E+000	9	...........	1467.79
	208	5.225	2.91984E-001	5.47875E-007	0.00000E+000	2.91999E-001	0.00000E+000	9	...........	1467.79
	209	5.25	2.90977E-001	4.73231E-007	0.00000E+000	2.90999E-001	0.00000E+000	9	...........	1467.79
	210	5.275	2.89991E-001	4.05129E-007	0.00000E+000	2.89999E-001	0.00000E+000	9	...........	1467.79
	211	5.3	2.88996E-001	3.54603E-007	0.00000E+000	2.89000E-001	0.00000E+000	9	...........	1467.79
	212	5.325	2.88002E-001	2.98358E-007	0.00000E+000	2.88000E-001	0.00000E+000	9	...........	1467.79
	213	5.35	2.86993E-001	2.35039E-007	0.00000E+000	2.87000E-001	0.00000E+000	9	...........	1467.79
	214	5.375	2.85994E-001	1.81554E-007	0.00000E+000	2.86001E-001	0.00000E+000	9	...........	1467.79
	215	5.4	2.84995E-001	1.34499E-007	0.00000E+000	2.85001E-001	0.00000E+000	9	...........	1467.79
	216	5.425	2.83996E-001	8.12803E-008	0.00000E+000	2.84001E-001	0.00000E+000	9	...........	1467.79
	217	5.45	2.82980E-001	2.39238E-008	0.00000E+000	2.83002E-001	0.00000E+000	9	...........	1467.79
	218	5.475	2.81976E-001	-2.93613E-008	0.00000E+000	2.82002E-001	0.00000E+000	9	...........	1467.79
	219	5.5	2.80968E-001	-6.92528E-008	0.00000E+000	2.81002E-001	0.00000E+000	9	...........	1467.79
	220	5.525	2.79969E-001	-1.14373E-007	0.00000E+000	2.80003E-001	0.00000E+000	9	...........	1467.79
	221	5.55	2.78975E-001	-1.79004E-007	0.00000E+000	2.79003E-001	0.00000E+000	9	...........	1467.79
	222	5.575	2.77982E-001	-2.20320E-007	0.00000E+000	2.78003E-001	0.00000E+000	9	...........	1467.79
	223	5.6	2.76986E-001	-2.60812E-007	0.00000E+000	2.77004E-001	0.00000E+000	9	...........	1467.79
	224	5.625	2.75990E-001	-3.06132E-007	0.00000E+000	2.76004E-001	0.00000E+000	9	...........	1467.79
	225	5.65	2.74985E-001	-3.60463E-007	0.00000E+000	2.75004E-001	0.00000E+000	9	...........	1467.79
	226	5.675	2.73978E-001	-4.10455E-007	0.00000E+000	2.74005E-001	0.00000E+000	9	...........	1467.79
	227	5.7	2.72985E-001	-4.44807E-007	0.00000E+000	2.73005E-001	0.00000E+000	9	...........	1467.79
	228	5.725	2.71989E-001	-4.91262E-007	0.00000E+000	2.72006E-001	0.00000E+000	9	...........	1467.79
	229	5.75	2.71000E-001	-5.43234E-007	0.00000E+000	2.71006E-001	0.00000E+000	9	...........	1467.79
	230	5.775	2.69995E-001	-5.95317E-007	0.00000E+000	2.69994E-001	0.00000E+000	9	...........	1467.79
	231	5.8	2.69002E-001	-6.17010E-007	0.00000E+000	2.68994E-001	0.00000E+000	9	...........	1467.79
	232	5.825	2.67968E-001	-6.65378E-007	0.00000E+000	2.67994E-001	0.00000E+000	9	...........	1467.79
	233	5.85	2.66969E-001	-7.10765E-007	0.00000E+000	2.66995E-001	0.00000E+000	9	...........	1467.79
	234	5.875	2.65980E-001	-7.50679E-007	0.00000E+000	2.65995E-001	0.00000E+000	9	...........	1467.79
	235	5.9	2.64977E-001	-7.84474E-007	0.00000E+000	2.64995E-001	0.00000E+000	9	...........	1467.63
	236	5.925	2.63981E-001	-8.25011E-007	0.00000E+000	2.63996E-001	0.00000E+000	9	...........	1467.43
	237	5.95	2.62980E-001	-8.72778E-007	0.00000E+000	2.62996E-001	0.00000E+000	9	...........	1467.43
	238	5.975	2.61979E-001	-9.13181E-007	0.00000E+000	2.61997E-001	0.00000E+000	9	...........	1467.43
	239	6	2.60982E-001	-9.46932E-007	0.00000E+000	2.60997E-001	0.00000E+000	9	...........	1467.43
	240	6.025	2.59995E-001	-9.86979E-007	0.00000E+000	2.59997E-001	0.00000E+000	9	...........	1467.43
	241	6.05	2.58997E-001	-1.04015E-006	0.00000E+000	2.58998E-001	0.00000E+000	9	...........	1467.43
	242	6.075	2.57985E-001	-1.07753E-006	0.00000E+000	2.57998E-001	0.00000E+000	9	...........	1467.43
	243	6.1	2.56984E-001	-1.10990E-006	0.00000E+000	2.56998E-001	0.00000E+000	9	...........	1467.43
	244	6.125	2.55969E-001	-1.15233E-006	0.00000E+000	2.55999E-001	0.00000E+000	9	...........	1467.43
	245	6.15	2.54952E-001	-1.19990E-006	0.00000E+000	2.54999E-001	0.00000E+000	9	...........	1467.43
	246	6.175	2.53959E-001	-1.23185E-006	0.00000E+000	2.53999E-001	0.00000E+000	9	...........	1467.43
	247	6.2	2.52965E-001	-1.26270E-006	0.00000E+000	2.53000E-001	0.00000E+000	9	...........	1467.43
	248	6.225	2.51970E-001	-1.30774E-006	0.00000E+000	2.52000E-001	0.00000E+000	9	...........	1467.43
	249	6.25	2.50978E-001	-1.35299E-006	0.00000E+000	2.51000E-001	0.00000E+000	9	...........	1467.43
	250	6.275	2.49985E-001	-1.38921E-006	0.00000E+000	2.50001E-001	0.00000E+000	9	...........	1467.43
	251	6.3	2.48979E-001	-1.41773E-006	0.00000E+000	2.49001E-001	0.00000E+000	9	...........	1467.43
	252	6.325	2.47983E-001	-1.46080E-006	0.00000E+000	2.48001E-001	0.00000E+000	9	...........	1467.43
	253	6.35	2.46983E-001	-1.51307E-006	0.00000E+000	2.47002E-001	0.00000E+000	9	...........	1467.43
	254	6.375	2.45992E-001	-1.55013E-006	0.00000E+000	2.46002E-001	0.00000E+000	9	...........	1467.43
	255	6.4	2.44999E-001	-1.57972E-006	0.00000E+000	2.45002E-001	0.00000E+000	9	...........	1467.43
	256	6.425	2.44005E-001	-1.62607E-006	0.00000E+000	2.44003E-001	0.00000E+000	9	...........	1467.43
	257	6.45	2.42995E-001	-1.68013E-006	0.00000E+000	2.43003E-001	0.00000E+000	9	...........	1467.43
	258	6.475	2.41984E-001	-1.71410E-006	0.00000E+000	2.42004E-001	0.00000E+000	9	...........	1467.43
	259	6.5	2.40982E-001	-1.74825E-006	0.00000E+000	2.41004E-001	0.00000E+000	9	...........	1467.43
	260	6.525	2.39991E-001	-1.79553E-006	0.00000E+000	2.40004E-001	0.00000E+000	9	...........	1467.43
	261	6.55	2.38985E-001	-1.84234E-006	0.00000E+000	2.39005E-001	0.00000E+000	9	...........	1467.43
	262	6.575	2.37987E-001	-1.88215E-006	0.00000E+000	2.38005E-001	0.00000E+000	9	...........	1467.43
	263	6.6	2.36986E-001	-1.91690E-006	0.00000E+000	2.37005E-001	0.00000E+000	9	...........	1467.43
	264	6.625	2.35979E-001	-1.96311E-006	0.00000E+000	2.36006E-001	0.00000E+000	9	...........	1467.43
	265	6.65	2.34983E-001	-2.01370E-006	0.00000E+000	2.35006E-001	0.00000E+000	9	...........	1467.43
	266	6.675	2.33988E-001	-2.05826E-006	0.00000E+000	2.33994E-001	0.00000E+000	9	...........	1467.43
	267	6.7	2.32982E-001	-2.08105E-006	0.00000E+000	2.32994E-001	0.00000E+000	9	...........	1467.43
	268	6.725	2.31984E-001	-2.12839E-006	0.00000E+000	2.31994E-001	0.00000E+000	9	...........	1467.43
	269	6.75	2.30978E-001	-2.17965E-006	0.00000E+000	2.30995E-001	0.00000E+000	9	...........	1467.43
	270	6.775	2.29965E-001	-2.21681E-006	0.00000E+000	2.29995E-001	0.00000E+000	9	...........	1467.43
	271	6.8	2.28973E-001	-2.25294E-006	0.00000E+000	2.28996E-001	0.00000E+000	9	...........	1467.43
	272	6.825	2.27974E-001	-2.30360E-006	0.00000E+000	2.27996E-001	0.00000E+000	9	...........	1467.43
	273	6.85	2.26961E-001	-2.36271E-006	0.00000E+000	2.26996E-001	0.00000E+000	9	...........	1467.43
	274	6.875	2.25968E-001	-2.39635E-006	0.00000E+000	2.25997E-001	0.00000E+000	9	...........	1467.43
	275	6.9	2.24973E-001	-2.43682E-006	0.00000E+000	2.24997E-001	0.00000E+000	9	...........	1467.43
	276	6.925	2.23988E-001	-2.48613E-006	0.00000E+000	2.23997E-001	0.00000E+000	9	...........	1467.43
	277	6.95	2.22983E-001	-2.53852E-006	0.00000E+000	2.22998E-001	0.00000E+000	9	...........	1467.43
	278	6.975	2.21979E-001	-2.58660E-006	0.00000E+000	2.21998E-001	0.00000E+000	9	...........	1467.43
	279	7	2.20976E-001	-2.62415E-006	0.00000E+000	2.20998E-001	0.00000E+000	9	...........	1467.43
	280	7.025	2.19971E-001	-2.67541E-006	0.00000E+000	2.19999E-001	0.00000E+000	9	...........	1467.43
	281	7.05	2.18977E-001	-2.72730E-006	0.00000E+000	2.18999E-001	0.00000E+000	9	...........	1467.43
	282	7.075	2.17991E-001	-2.77282E-006	0.00000E+000	2.17999E-001	0.00000E+000	9	...........	1467.43
	283	7.1	2.16967E-001	-2.81109E-006	0.00000E+000	2.17000E-001	0.00000E+000	9	...........	1467.43
	284	7.125	2.15981E-001	-2.86579E-006	0.00000E+000	2.16000E-001	0.00000E+000	9	...........	1467.43
	285	7.15	2.14973E-001	-2.92157E-006	0.00000E+000	2.15000E-001	0.00000E+000	9	...........	1467.43
	286	7.175	2.13971E-001	-2.96513E-006	0.00000E+000	2.14001E-001	0.00000E+000	9	...........	1467.43
	287	7.2	2.12982E-001	-3.01077E-006	0.00000E+000	2.13001E-001	0.00000E+000	9	...........	1467.43
	288	7.225	2.11996E-001	-3.06621E-006	0.00000E+000	2.12001E-001	0.00000E+000	9	...........	1467.43
	289	7.25	2.10981E-001	-3.12036E-006	0.00000E+000	2.11002E-001	0.00000E+000	9	...........	1467.43
	290	7.275	2.09985E-001	-3.16684E-006	0.00000E+000	2.10002E-001	0.00000E+000	9	...........	1467.43
	291	7.3	2.08988E-001	-3.21323E-006	0.00000E+000	2.09003E-001	0.00000E+000	9	...........	1467.43
	292	7.325	2.07996E-001	-3.26945E-006	0.00000E+000	2.08003E-001	0.00000E+000	9	...........	1467.43
	293	7.35	2.06988E-001	-3.32843E-006	0.00000E+000	2.07003E-001	0.00000E+000	9	...........	1467.43
	294	7.375	2.05994E-001	-3.37486E-006	0.00000E+000	2.06004E-001	0.00000E+000	9	...........	1467.43
	295	7.4	2.04997E-001	-3.42221E-006	0.00000E+000	2.05004E-001	0.00000E+000	9	...........	1467.43
	296	7.425	2.03981E-001	-3.48083E-006	0.00000E+000	2.04004E-001	0.00000E+000	9	...........	1467.43
	297	7.45	2.02983E-001	-3.54444E-006	0.00000E+000	2.03005E-001	0.00000E+000	9	...........	1467.43
	298	7.475	2.01982E-001	-3.59437E-006	0.00000E+000	2.02005E-001	0.00000E+000	9	...........	1467.43
	299	7.5	2.00985E-001	-3.64282E-006	0.00000E+000	2.01005E-001	0.00000E+000	9	...........	1467.43
	300	7.525	1.99996E-001	-3.70510E-006	0.00000E+000	2.00006E-001	0.00000E+000	9	...........	1467.43
	301	7.55	1.98996E-001	-3.76203E-006	0.00000E+000	1.99006E-001	0.00000E+000	9	...........	1467.43
	302	7.575	1.97979E-001	-3.82286E-006	0.00000E+000	1.97994E-001	0.00000E+000	9	...........	1467.43
	303	7.6	1.96979E-001	-3.86713E-006	0.00000E+000	1.96994E-001	0.00000E+000	9	...........	1467.43
	304	7.625	1.95986E-001	-3.92762E-006	0.00000E+000	1.95995E-001	0.00000E+000	9	...........	1467.43
	305	7.65	1.94988E-001	-3.99161E-006	0.00000E+000	1.94995E-001	0.00000E+000	9	...........	1467.43
	306	7.675	1.93996E-001	-4.04107E-006	0.00000E+000	1.93995E-001	0.00000E+000	9	...........	1467.43
	307	7.7	1.93008E-001	-4.09585E-006	0.00000E+000	1.92996E-001	0.00000E+000	9	...........	1467.43
	308	7.725	1.92016E-001	-4.15734E-006	0.00000E+000	1.91996E-001	0.00000E+000	9	...........	1467.43
	309	7.75	1.90979E-001	-4.22019E-006	0.00000E+000	1.90996E-001	0.00000E+000	9	...........	1467.43
	310	7.775	1.89979E-001	-4.27646E-006	0.00000E+000	1.89997E-001	0.00000E+000	9	...........	1467.43
	311	7.8	1.88982E-001	-4.33310E-006	0.00000E+000	1.88997E-001	0.00000E+000	9	...........	1467.43
	312	7.825	1.87993E-001	-4.39902E-006	0.00000E+000	1.87997E-001	0.00000E+000	9	...........	1467.43
	313	7.85	1.87004E-001	-4.46439E-006	0.00000E+000	1.86998E-001	0.00000E+000	9	...........	1467.43
	314	7.875	1.86014E-001	-4.51821E-006	0.00000E+000	1.85998E-001	0.00000E+000	9	...........	1467.43
	315	7.9	1.84997E-001	-4.57563E-006	0.00000E+000	1.84998E-001	0.00000E+000	9	...........	1467.57
	316	7.925	1.83997E-001	-4.64131E-006	0.00000E+000	1.83999E-001	0.00000E+000	9	...........	1467.70
	317	7.95	1.82999E-001	-4.71017E-006	0.00000E+000	1.82999E-001	0.00000E+000	9	...........	1467.70
	318	7.975	1.82003E-001	-4.76348E-006	0.00000E+000	1.81999E-001	0.00000E+000	9	...........	1467.70
	319	8	1.80999E-001	-4.81816E-006	0.00000E+000	1.81000E-001	0.00000E+000	9	...........	1467.70
	320	8.025	1.79989E-001	-4.88840E-006	0.00000E+000	1.80000E-001	0.00000E+000	9	...........	1467.70
	321	8.05	1.78973E-001	-4.95610E-006	0.00000E+000	1.79000E-001	0.00000E+000	9	...........	1467.70
	322	8.075	1.77975E-001	-5.01313E-006	0.00000E+000	1.78001E-001	0.00000E+000	9	...........	1467.70
	323	8.1	1.76980E-001	-5.07371E-006	0.00000E+000	1.77001E-001	0.00000E+000	9	...........	1467.70
	324	8.125	1.75996E-001	-5.14535E-006	0.00000E+000	1.76002E-001	0.00000E+000	9	...........	1467.70
	325	8.15	1.74987E-001	-5.21058E-006	0.00000E+000	1.75002E-001	0.00000E+000	9	...........	1467.70
	326	8.175	1.73990E-001	-5.26845E-006	0.00000E+000	1.74002E-001	0.00000E+000	9	...........	1467.70
	327	8.2	1.72994E-001	-5.32182E-006	0.00000E+000	1.73003E-001	0.00000E+000	9	...........	1467.70
	328	8.225	1.71985E-001	-5.38968E-006	0.00000E+000	1.72003E-001	0.00000E+000	9	...........	1467.70
	329	8.25	1.70979E-001	-5.46348E-006	0.00000E+000	1.71003E-001	0.00000E+000	9	...........	1467.70
	330	8.275	1.69988E-001	-5.52275E-006	0.00000E+000	1.70004E-001	0.00000E+000	9	...........	1467.70
	331	8.3	1.68993E-001	-5.58131E-006	0.00000E+000	1.69004E-001	0.00000E+000	9	...........	1467.70
	332	8.325	1.68002E-001	-5.64923E-006	0.00000E+000	1.68004E-001	0.00000E+000	9	...........	1467.70
	333	8.35	1.67010E-001	-5.72134E-006	0.00000E+000	1.67005E-001	0.00000E+000	9	...........	1467.70
	334	8.375	1.65978E-001	-5.78092E-006	0.00000E+000	1.66005E-001	0.00000E+000	9	...........	1467.70
	335	8.4	1.64988E-001	-5.83995E-006	0.00000E+000	1.65005E-001	0.00000E+000	9	...........	1467.70
	336	8.425	1.63999E-001	-5.91379E-006	0.00000E+000	1.64006E-001	0.00000E+000	9	...........	1467.70
	337	8.45	1.62994E-001	-5.98278E-006	0.00000E+000	1.63006E-001	0.00000E+000	9	...........	1467.70
	338	8.475	1.61987E-001	-6.04739E-006	0.00000E+000	1.61994E-001	0.00000E+000	9	...........	1467.70
	339	8.5	1.60987E-001	-6.10159E-006	0.00000E+000	1.60994E-001	0.00000E+000	9	...........	1467.70
	340	8.525	1.59984E-001	-6.17218E-006	0.00000E+000	1.59995E-001	0.00000E+000	9	...........	1467.70
	341	8.55	1.58980E-001	-6.24155E-006	0.00000E+000	1.58995E-001	0.00000E+000	9	...........	1467.70
	342	8.575	1.57999E-001	-6.30374E-006	0.00000E+000	1.57995E-001	0.00000E+000	9	...........	1467.70
	343	8.6	1.57002E-001	-6.36490E-006	0.00000E+000	1.56996E-001	0.00000E+000	9	...........	1467.70
	344	8.625	1.55992E-001	-6.44028E-006	0.00000E+000	1.55996E-001	0.00000E+000	9	...........	1467.70
	345	8.65	1.54995E-001	-6.50535E-006	0.00000E+000	1.54996E-001	0.00000E+000	9	...........	1467.70
	346	8.675	1.53979E-001	-6.56772E-006	0.00000E+000	1.53997E-001	0.00000E+000	9	...........	1467.70
	347	8.7	1.52973E-001	-6.63008E-006	0.00000E+000	1.52997E-001	0.00000E+000	9	...........	1467.70
	348	8.725	1.51980E-001	-6.70261E-006	0.00000E+000	1.51997E-001	0.00000E+000	9	...........	1467.70
	349	8.75	1.50987E-001	-6.77418E-006	0.00000E+000	1.50998E-001	0.00000E+000	9	...........	1467.70
	350	8.775	1.49990E-001	-6.83503E-006	0.00000E+000	1.49998E-001	0.00000E+000	9	...........	1467.70
	351	8.8	1.48989E-001	-6.89857E-006	0.00000E+000	1.48998E-001	0.00000E+000	9	...........	1467.70
	352	8.825	1.48001E-001	-6.97159E-006	0.00000E+000	1.47999E-001	0.00000E+000	9	...........	1467.70
	353	8.85	1.47003E-001	-7.04245E-006	0.00000E+000	1.46999E-001	0.00000E+000	9	...........	1467.70
	354	8.875	1.45996E-001	-7.09738E-006	0.00000E+000	1.46000E-001	0.00000E+000	9	...........	1467.70
	355	8.9	1.44995E-001	-7.16811E-006	0.00000E+000	1.45000E-001	0.00000E+000	9	...........	1467.56
	356	8.925	1.43990E-001	-7.24609E-006	0.00000E+000	1.44000E-001	0.00000E+000	9	...........	1467.43
	357	8.95	1.43001E-001	-7.31740E-006	0.00000E+000	1.43001E-001	0.00000E+000	9	...........	1467.43
	358	8.975	1.42007E-001	-7.36964E-006	0.00000E+000	1.42001E-001	0.00000E+000	9	...........	1467.43
	359	9	1.41004E-001	-7.44237E-006	0.00000E+000	1.41001E-001	0.00000E+000	9	...........	1467.43
	360	9.025	1.39983E-001	-7.51902E-006	0.00000E+000	1.40002E-001	0.00000E+000	9	...........	1467.43
	361	9.05	1.38987E-001	-7.59577E-006	0.00000E+000	1.39002E-001	0.00000E+000	9	...........	1467.43
	362	9.075	1.37989E-001	-7.65791E-006	0.00000E+000	1.38002E-001	0.00000E+000	9	...........	1467.43
	363	9.1	1.36993E-001	-7.72768E-006	0.00000E+000	1.37003E-001	0.00000E+000	9	...........	1467.43
	364	9.125	1.35996E-001	-7.80925E-006	0.00000E+000	1.36003E-001	0.00000E+000	9	...........	1467.43
	365	9.15	1.35000E-001	-7.87922E-006	0.00000E+000	1.35003E-001	0.00000E+000	9	...........	1467.43
	366	9.175	1.33997E-001	-7.94345E-006	0.00000E+000	1.34004E-001	0.00000E+000	9	...........	1467.43
	367	9.2	1.33006E-001	-8.01264E-006	0.00000E+000	1.33004E-001	0.00000E+000	9	...........	1467.43
	368	9.225	1.32011E-001	-8.09790E-006	0.00000E+000	1.32004E-001	0.00000E+000	9	...........	1467.43
	369	9.25	1.31009E-001	-8.17192E-006	0.00000E+000	1.31005E-001	0.00000E+000	9	...........	1467.43
	370	9.275	1.30004E-001	-8.23869E-006	0.00000E+000	1.30005E-001	0.00000E+000	9	...........	1467.43
	371	9.3	1.29007E-001	-8.31934E-006	0.00000E+000	1.29005E-001	0.00000E+000	9	...........	1467.43
	372	9.325	1.28008E-001	-8.40324E-006	0.00000E+000	1.28006E-001	0.00000E+000	9	...........	1467.43
	373	9.35	1.26996E-001	-8.47919E-006	0.00000E+000	1.27006E-001	0.00000E+000	9	...........	1467.43
	374	9.375	1.25984E-001	-8.55424E-006	0.00000E+000	1.25994E-001	0.00000E+000	9	...........	1467.43
	375	9.4	1.24987E-001	-8.62846E-006	0.00000E+000	1.24994E-001	0.00000E+000	9	...........	1467.43
	376	9.425	1.23977E-001	-8.71509E-006	0.00000E+000	1.23995E-001	0.00000E+000	9	...........	1467.43
	377	9.45	1.22984E-001	-8.79661E-006	0.00000E+000	1.22995E-001	0.00000E+000	9	...........	1467.43
	378	9.475	1.21990E-001	-8.86580E-006	0.00000E+000	1.21995E-001	0.00000E+000	9	...........	1467.43
	379	9.5	1.20987E-001	-8.94697E-006	0.00000E+000	1.20996E-001	0.00000E+000	9	...........	1467.43
	380	9.525	1.19989E-001	-9.03382E-006	0.00000E+000	1.19996E-001	0.00000E+000	9	...........	1467.43
	381	9.55	1.18988E-001	-9.11305E-006	0.00000E+000	1.18996E-001	0.00000E+000	9	...........	1467.43
	382	9.575	1.17988E-001	-9.18600E-006	0.00000E+000	1.17997E-001	0.00000E+000	9	...........	1467.43
	383	9.6	1.16994E-001	-9.26670E-006	0.00000E+000	1.16997E-001	0.00000E+000	9	...........	1467.43
	384	9.625	1.16004E-001	-9.36521E-006	0.00000E+000	1.15997E-001	0.00000E+000	9	...........	1467.43
[...]
	1004	25.125	2.96007E-001	8.40798E-007	0.00000E+000	2.95997E-001	0.00000E+000	9	...........	1467.52
	1005	25.15	2.95003E-001	7.59880E-007	0.00000E+000	2.94998E-001	0.00000E+000	9	...........	1467.52
	1006	25.175	2.93972E-001	6.84814E-007	0.00000E+000	2.93998E-001	0.00000E+000	9	...........	1467.52
	1007	25.2	2.92966E-001	6.02206E-007	0.00000E+000	2.92998E-001	0.00000E+000	9	...........	1467.52
	1008	25.225	2.91967E-001	5.23046E-007	0.00000E+000	2.91999E-001	0.00000E+000	9	...........	1467.52
	1009	25.25	2.90964E-001	4.64755E-007	0.00000E+000	2.90999E-001	0.00000E+000	9	...........	1467.52
	1010	25.275	2.89979E-001	4.04083E-007	0.00000E+000	2.89999E-001	0.00000E+000	9	...........	1467.52
	1011	25.3	2.88989E-001	3.40764E-007	0.00000E+000	2.89000E-001	0.00000E+000	9	...........	1467.52
	1012	25.325	2.87993E-001	2.75087E-007	0.00000E+000	2.88000E-001	0.00000E+000	9	...........	1467.52
	1013	25.35	2.86984E-001	2.29233E-007	0.00000E+000	2.87000E-001	0.00000E+000	9	...........	1467.52
	1014	25.375	2.85987E-001	1.80709E-007	0.00000E+000	2.86001E-001	0.00000E+000	9	...........	1467.52
	1015	25.4	2.84993E-001	1.22128E-007	0.00000E+000	2.85001E-001	0.00000E+000	9	...........	1467.52
	1016	25.425	2.83998E-001	6.06782E-008	0.00000E+000	2.84001E-001	0.00000E+000	9	...........	1467.52
	1017	25.45	2.82989E-001	1.45571E-008	0.00000E+000	2.83002E-001	0.00000E+000	9	...........	1467.52
	1018	25.475	2.81986E-001	-2.30427E-008	0.00000E+000	2.82002E-001	0.00000E+000	9	...........	1467.52
	1019	25.5	2.80974E-001	-8.06663E-008	0.00000E+000	2.81002E-001	0.00000E+000	9	...........	1467.52
	1020	25.525	2.79974E-001	-1.34018E-007	0.00000E+000	2.80003E-001	0.00000E+000	9	...........	1467.52
	1021	25.55	2.78977E-001	-1.76134E-007	0.00000E+000	2.79003E-001	0.00000E+000	9	...........	1467.52
	1022	25.575	2.77981E-001	-2.19052E-007	0.00000E+000	2.78003E-001	0.00000E+000	9	...........	1467.52
	1023	25.6	2.76985E-001	-2.72203E-007	0.00000E+000	2.77004E-001	0.00000E+000	9	...........	1467.52
	1024	25.625	2.75994E-001	-3.25132E-007	0.00000E+000	2.76004E-001	0.00000E+000	9	...........	1467.52
	1025	25.65	2.74987E-001	-3.51830E-007	0.00000E+000	2.75004E-001	0.00000E+000	9	...........	1467.52
	1026	25.675	2.73987E-001	-3.99598E-007	0.00000E+000	2.74005E-001	0.00000E+000	9	...........	1467.52
	1027	25.7	2.72985E-001	-4.49034E-007	0.00000E+000	2.73005E-001	0.00000E+000	9	...........	1467.52
	1028	25.725	2.71994E-001	-4.97424E-007	0.00000E+000	2.72006E-001	0.00000E+000	9	...........	1467.52
	1029	25.75	2.71002E-001	-5.33445E-007	0.00000E+000	2.71006E-001	0.00000E+000	9	...........	1467.52
	1030	25.775	2.69994E-001	-5.82035E-007	0.00000E+000	2.69994E-001	0.00000E+000	9	...........	1467.52
	1031	25.8	2.68996E-001	-6.23818E-007	0.00000E+000	2.68994E-001	0.00000E+000	9	...........	1467.52
	1032	25.825	2.67959E-001	-6.69939E-007	0.00000E+000	2.67994E-001	0.00000E+000	9	...........	1467.52
	1033	25.85	2.66961E-001	-7.02021E-007	0.00000E+000	2.66995E-001	0.00000E+000	9	...........	1467.52
	1034	25.875	2.65973E-001	-7.39710E-007	0.00000E+000	2.65995E-001	0.00000E+000	9	...........	1467.52
	1035	25.9	2.64967E-001	-7.92150E-007	0.00000E+000	2.64995E-001	0.00000E+000	9	...........	1467.61
	1036	25.925	2.63969E-001	-8.36780E-007	0.00000E+000	2.63996E-001	0.00000E+000	9	...........	1467.61
	1037	25.95	2.62975E-001	-8.64924E-007	0.00000E+000	2.62996E-001	0.00000E+000	9	...........	1467.61
	1038	25.975	2.61969E-001	-9.07130E-007	0.00000E+000	2.61997E-001	0.00000E+000	9	...........	1467.61
	1039	26	2.60976E-001	-9.50047E-007	0.00000E+000	2.60997E-001	0.00000E+000	9	...........	1467.61
	1040	26.025	2.59986E-001	-9.91652E-007	0.00000E+000	2.59997E-001	0.00000E+000	9	...........	1467.61
	1041	26.05	2.58990E-001	-1.02362E-006	0.00000E+000	2.58998E-001	0.00000E+000	9	...........	1467.61
	1042	26.075	2.57992E-001	-1.06087E-006	0.00000E+000	2.57998E-001	0.00000E+000	9	...........	1467.61
	1043	26.1	2.56986E-001	-1.10988E-006	0.00000E+000	2.56998E-001	0.00000E+000	9	...........	1467.61
	1044	26.125	2.55974E-001	-1.14886E-006	0.00000E+000	2.55999E-001	0.00000E+000	9	...........	1467.61
	1045	26.15	2.54956E-001	-1.17845E-006	0.00000E+000	2.54999E-001	0.00000E+000	9	...........	1467.61
	1046	26.175	2.53957E-001	-1.21963E-006	0.00000E+000	2.53999E-001	0.00000E+000	9	...........	1467.61
	1047	26.2	2.52968E-001	-1.26611E-006	0.00000E+000	2.53000E-001	0.00000E+000	9	...........	1467.61
	1048	26.225	2.51978E-001	-1.30602E-006	0.00000E+000	2.52000E-001	0.00000E+000	9	...........	1467.61
	1049	26.25	2.50992E-001	-1.33357E-006	0.00000E+000	2.51000E-001	0.00000E+000	9	...........	1467.61
	1050	26.275	2.49999E-001	-1.37555E-006	0.00000E+000	2.50001E-001	0.00000E+000	9	...........	1467.61
	1051	26.3	2.48989E-001	-1.42096E-006	0.00000E+000	2.49001E-001	0.00000E+000	9	...........	1467.61
	1052	26.325	2.47999E-001	-1.46450E-006	0.00000E+000	2.48001E-001	0.00000E+000	9	...........	1467.61
	1053	26.35	2.46999E-001	-1.49464E-006	0.00000E+000	2.47002E-001	0.00000E+000	9	...........	1467.61
	1054	26.375	2.45997E-001	-1.53560E-006	0.00000E+000	2.46002E-001	0.00000E+000	9	...........	1467.61
	1055	26.4	2.45010E-001	-1.58108E-006	0.00000E+000	2.45002E-001	0.00000E+000	9	...........	1467.61
	1056	26.425	2.44016E-001	-1.62159E-006	0.00000E+000	2.44003E-001	0.00000E+000	9	...........	1467.61
	1057	26.45	2.42996E-001	-1.65167E-006	0.00000E+000	2.43003E-001	0.00000E+000	9	...........	1467.61
	1058	26.475	2.41984E-001	-1.69212E-006	0.00000E+000	2.42004E-001	0.00000E+000	9	...........	1467.61
	1059	26.5	2.40981E-001	-1.74267E-006	0.00000E+000	2.41004E-001	0.00000E+000	9	...........	1467.61
	1060	26.525	2.39988E-001	-1.78316E-006	0.00000E+000	2.40004E-001	0.00000E+000	9	...........	1467.61
	1061	26.55	2.38981E-001	-1.81246E-006	0.00000E+000	2.39005E-001	0.00000E+000	9	...........	1467.61
	1062	26.575	2.37981E-001	-1.85565E-006	0.00000E+000	2.38005E-001	0.00000E+000	9	...........	1467.61
	1063	26.6	2.36991E-001	-1.90350E-006	0.00000E+000	2.37005E-001	0.00000E+000	9	...........	1467.61
	1064	26.625	2.35977E-001	-1.95083E-006	0.00000E+000	2.36006E-001	0.00000E+000	9	...........	1467.61
	1065	26.65	2.34984E-001	-1.98489E-006	0.00000E+000	2.35006E-001	0.00000E+000	9	...........	1467.61
	1066	26.675	2.33987E-001	-2.03515E-006	0.00000E+000	2.33994E-001	0.00000E+000	9	...........	1467.61
	1067	26.7	2.32986E-001	-2.07773E-006	0.00000E+000	2.32994E-001	0.00000E+000	9	...........	1467.61
	1068	26.725	2.31990E-001	-2.12169E-006	0.00000E+000	2.31994E-001	0.00000E+000	9	...........	1467.61
	1069	26.75	2.30982E-001	-2.15645E-006	0.00000E+000	2.30995E-001	0.00000E+000	9	...........	1467.61
	1070	26.775	2.29972E-001	-2.20037E-006	0.00000E+000	2.29995E-001	0.00000E+000	9	...........	1467.61
	1071	26.8	2.28972E-001	-2.24913E-006	0.00000E+000	2.28996E-001	0.00000E+000	9	...........	1467.61
	1072	26.825	2.27977E-001	-2.29061E-006	0.00000E+000	2.27996E-001	0.00000E+000	9	...........	1467.61
	1073	26.85	2.26969E-001	-2.32251E-006	0.00000E+000	2.26996E-001	0.00000E+000	9	...........	1467.61
	1074	26.875	2.25969E-001	-2.37028E-006	0.00000E+000	2.25997E-001	0.00000E+000	9	...........	1467.61
	1075	26.9	2.24975E-001	-2.42303E-006	0.00000E+000	2.24997E-001	0.00000E+000	9	...........	1467.52
	1076	26.925	2.23991E-001	-2.46543E-006	0.00000E+000	2.23997E-001	0.00000E+000	9	...........	1467.52
	1077	26.95	2.22987E-001	-2.50090E-006	0.00000E+000	2.22998E-001	0.00000E+000	9	...........	1467.52
	1078	26.975	2.21988E-001	-2.54795E-006	0.00000E+000	2.21998E-001	0.00000E+000	9	...........	1467.52
	1079	27	2.20992E-001	-2.60549E-006	0.00000E+000	2.20998E-001	0.00000E+000	9	...........	1467.52
	1080	27.025	2.19986E-001	-2.65308E-006	0.00000E+000	2.19999E-001	0.00000E+000	9	...........	1467.52
	1081	27.05	2.18989E-001	-2.68970E-006	0.00000E+000	2.18999E-001	0.00000E+000	9	...........	1467.52
	1082	27.075	2.18002E-001	-2.74185E-006	0.00000E+000	2.17999E-001	0.00000E+000	9	...........	1467.52
	1083	27.1	2.16976E-001	-2.79803E-006	0.00000E+000	2.17000E-001	0.00000E+000	9	...........	1467.52
	1084	27.125	2.15979E-001	-2.84475E-006	0.00000E+000	2.16000E-001	0.00000E+000	9	...........	1467.52
	1085	27.15	2.14971E-001	-2.88175E-006	0.00000E+000	2.15000E-001	0.00000E+000	9	...........	1467.52
	1086	27.175	2.13959E-001	-2.93272E-006	0.00000E+000	2.14001E-001	0.00000E+000	9	...........	1467.52
	1087	27.2	2.12967E-001	-2.98905E-006	0.00000E+000	2.13001E-001	0.00000E+000	9	...........	1467.52
	1088	27.225	2.11982E-001	-3.03442E-006	0.00000E+000	2.12001E-001	0.00000E+000	9	...........	1467.52
	1089	27.25	2.10973E-001	-3.07471E-006	0.00000E+000	2.11002E-001	0.00000E+000	9	...........	1467.52
	1090	27.275	2.09980E-001	-3.12913E-006	0.00000E+000	2.10002E-001	0.00000E+000	9	...........	1467.52
	1091	27.3	2.08983E-001	-3.19142E-006	0.00000E+000	2.09003E-001	0.00000E+000	9	...........	1467.52
	1092	27.325	2.07984E-001	-3.24017E-006	0.00000E+000	2.08003E-001	0.00000E+000	9	...........	1467.52
	1093	27.35	2.06977E-001	-3.28682E-006	0.00000E+000	2.07003E-001	0.00000E+000	9	...........	1467.52
	1094	27.375	2.05990E-001	-3.33588E-006	0.00000E+000	2.06004E-001	0.00000E+000	9	...........	1467.52
	1095	27.4	2.04995E-001	-3.39446E-006	0.00000E+000	2.05004E-001	0.00000E+000	9	...........	1467.52
	1096	27.425	2.03982E-001	-3.44232E-006	0.00000E+000	2.04004E-001	0.00000E+000	9	...........	1467.52
	1097	27.45	2.02981E-001	-3.49249E-006	0.00000E+000	2.03005E-001	0.00000E+000	9	...........	1467.52
	1098	27.475	2.01986E-001	-3.54575E-006	0.00000E+000	2.02005E-001	0.00000E+000	9	...........	1467.52
	1099	27.5	2.00990E-001	-3.61052E-006	0.00000E+000	2.01005E-001	0.00000E+000	9	...........	1467.52
	1100	27.525	2.00004E-001	-3.66156E-006	0.00000E+000	2.00006E-001	0.00000E+000	9	...........	1467.52
	1101	27.55	1.99007E-001	-3.70932E-006	0.00000E+000	1.99006E-001	0.00000E+000	9	...........	1467.52
	1102	27.575	1.97983E-001	-3.78130E-006	0.00000E+000	1.97994E-001	0.00000E+000	9	...........	1467.52
	1103	27.6	1.96990E-001	-3.83761E-006	0.00000E+000	1.96994E-001	0.00000E+000	9	...........	1467.52
	1104	27.625	1.95988E-001	-3.88929E-006	0.00000E+000	1.95995E-001	0.00000E+000	9	...........	1467.52
	1105	27.65	1.94986E-001	-3.94104E-006	0.00000E+000	1.94995E-001	0.00000E+000	9	...........	1467.52
	1106	27.675	1.94000E-001	-4.00015E-006	0.00000E+000	1.93995E-001	0.00000E+000	9	...........	1467.52
	1107	27.7	1.93005E-001	-4.06543E-006	0.00000E+000	1.92996E-001	0.00000E+000	9	...........	1467.52
	1108	27.725	1.92010E-001	-4.11485E-006	0.00000E+000	1.91996E-001	0.00000E+000	9	...........	1467.52
	1109	27.75	1.90982E-001	-4.16622E-006	0.00000E+000	1.90996E-001	0.00000E+000	9	...........	1467.52
	1110	27.775	1.89983E-001	-4.22680E-006	0.00000E+000	1.89997E-001	0.00000E+000	9	...........	1467.52
	1111	27.8	1.88986E-001	-4.29274E-006	0.00000E+000	1.88997E-001	0.00000E+000	9	...........	1467.52
	1112	27.825	1.87991E-001	-4.34594E-006	0.00000E+000	1.87997E-001	0.00000E+000	9	...........	1467.52
	1113	27.85	1.86989E-001	-4.40583E-006	0.00000E+000	1.86998E-001	0.00000E+000	9	...........	1467.52
	1114	27.875	1.85992E-001	-4.46308E-006	0.00000E+000	1.85998E-001	0.00000E+000	9	...........	1467.52
	1115	27.9	1.84986E-001	-4.53214E-006	0.00000E+000	1.84998E-001	0.00000E+000	9	...........	1467.52
	1116	27.925	1.83996E-001	-4.58934E-006	0.00000E+000	1.83999E-001	0.00000E+000	9	...........	1467.52
	1117	27.95	1.82992E-001	-4.64233E-006	0.00000E+000	1.82999E-001	0.00000E+000	9	...........	1467.52
	1118	27.975	1.81997E-001	-4.70801E-006	0.00000E+000	1.81999E-001	0.00000E+000	9	...........	1467.52
	1119	28	1.80995E-001	-4.77903E-006	0.00000E+000	1.81000E-001	0.00000E+000	9	...........	1467.52
	1120	28.025	1.79979E-001	-4.83187E-006	0.00000E+000	1.80000E-001	0.00000E+000	9	...........	1467.52
	1121	28.05	1.78969E-001	-4.88613E-006	0.00000E+000	1.79000E-001	0.00000E+000	9	...........	1467.52
	1122	28.075	1.77971E-001	-4.95239E-006	0.00000E+000	1.78001E-001	0.00000E+000	9	...........	1467.52
	1123	28.1	1.76972E-001	-5.02438E-006	0.00000E+000	1.77001E-001	0.00000E+000	9	...........	1467.52
	1124	28.125	1.75987E-001	-5.08474E-006	0.00000E+000	1.76002E-001	0.00000E+000	9	...........	1467.52
	1125	28.15	1.74982E-001	-5.14235E-006	0.00000E+000	1.75002E-001	0.00000E+000	9	...........	1467.52
	1126	28.175	1.73984E-001	-5.20409E-006	0.00000E+000	1.74002E-001	0.00000E+000	9	...........	1467.52
	1127	28.2	1.72993E-001	-5.27203E-006	0.00000E+000	1.73003E-001	0.00000E+000	9	...........	1467.52
	1128	28.225	1.71995E-001	-5.33522E-006	0.00000E+000	1.72003E-001	0.00000E+000	9	...........	1467.52
	1129	28.25	1.70997E-001	-5.39360E-006	0.00000E+000	1.71003E-001	0.00000E+000	9	...........	1467.52
	1130	28.275	1.70009E-001	-5.45672E-006	0.00000E+000	1.70004E-001	0.00000E+000	9	...........	1467.52
	1131	28.3	1.69000E-001	-5.52909E-006	0.00000E+000	1.69004E-001	0.00000E+000	9	...........	1467.52
	1132	28.325	1.68008E-001	-5.59252E-006	0.00000E+000	1.68004E-001	0.00000E+000	9	...........	1467.52
	1133	28.35	1.67009E-001	-5.64469E-006	0.00000E+000	1.67005E-001	0.00000E+000	9	...........	1467.52
	1134	28.375	1.65975E-001	-5.71382E-006	0.00000E+000	1.66005E-001	0.00000E+000	9	...........	1467.52
	1135	28.4	1.64977E-001	-5.78991E-006	0.00000E+000	1.65005E-001	0.00000E+000	9	...........	1467.52
	1136	28.425	1.63990E-001	-5.84698E-006	0.00000E+000	1.64006E-001	0.00000E+000	9	...........	1467.52
	1137	28.45	1.62980E-001	-5.90538E-006	0.00000E+000	1.63006E-001	0.00000E+000	9	...........	1467.52
	1138	28.475	1.61976E-001	-5.98332E-006	0.00000E+000	1.61994E-001	0.00000E+000	9	...........	1467.52
	1139	28.5	1.60978E-001	-6.04601E-006	0.00000E+000	1.60994E-001	0.00000E+000	9	...........	1467.52
	1140	28.525	1.59977E-001	-6.10677E-006	0.00000E+000	1.59995E-001	0.00000E+000	9	...........	1467.52
	1141	28.55	1.58970E-001	-6.16077E-006	0.00000E+000	1.58995E-001	0.00000E+000	9	...........	1467.52
	1142	28.575	1.57985E-001	-6.23285E-006	0.00000E+000	1.57995E-001	0.00000E+000	9	...........	1467.52
	1143	28.6	1.56986E-001	-6.30612E-006	0.00000E+000	1.56996E-001	0.00000E+000	9	...........	1467.52
	1144	28.625	1.55982E-001	-6.36990E-006	0.00000E+000	1.55996E-001	0.00000E+000	9	...........	1467.52
	1145	28.65	1.54982E-001	-6.42435E-006	0.00000E+000	1.54996E-001	0.00000E+000	9	...........	1467.52
	1146	28.675	1.53977E-001	-6.49801E-006	0.00000E+000	1.53997E-001	0.00000E+000	9	...........	1467.52
	1147	28.7	1.52967E-001	-6.56907E-006	0.00000E+000	1.52997E-001	0.00000E+000	9	...........	1467.52
	1148	28.725	1.51970E-001	-6.63310E-006	0.00000E+000	1.51997E-001	0.00000E+000	9	...........	1467.52
	1149	28.75	1.50972E-001	-6.69335E-006	0.00000E+000	1.50998E-001	0.00000E+000	9	...........	1467.52
	1150	28.775	1.49975E-001	-6.76804E-006	0.00000E+000	1.49998E-001	0.00000E+000	9	...........	1467.52
	1151	28.8	1.48979E-001	-6.84222E-006	0.00000E+000	1.48998E-001	0.00000E+000	9	...........	1467.52
	1152	28.825	1.47984E-001	-6.90111E-006	0.00000E+000	1.47999E-001	0.00000E+000	9	...........	1467.52
	1153	28.85	1.46988E-001	-6.96336E-006	0.00000E+000	1.46999E-001	0.00000E+000	9	...........	1467.52
	1154	28.875	1.45987E-001	-7.03551E-006	0.00000E+000	1.46000E-001	0.00000E+000	9	...........	1467.52
	1155	28.9	1.44986E-001	-7.11454E-006	0.00000E+000	1.45000E-001	0.00000E+000	9	...........	1467.52
	1156	28.925	1.43991E-001	-7.17799E-006	0.00000E+000	1.44000E-001	0.00000E+000	9	...........	1467.52
	1157	28.95	1.42999E-001	-7.23937E-006	0.00000E+000	1.43001E-001	0.00000E+000	9	...........	1467.52
	1158	28.975	1.42002E-001	-7.30886E-006	0.00000E+000	1.42001E-001	0.00000E+000	9	...........	1467.52
	1159	29	1.41007E-001	-7.38421E-006	0.00000E+000	1.41001E-001	0.00000E+000	9	...........	1467.52
	1160	29.025	1.39986E-001	-7.44769E-006	0.00000E+000	1.40002E-001	0.00000E+000	9	...........	1467.52
	1161	29.05	1.38990E-001	-7.51207E-006	0.00000E+000	1.39002E-001	0.00000E+000	9	...........	1467.52
	1162	29.075	1.37992E-001	-7.59110E-006	0.00000E+000	1.38002E-001	0.00000E+000	9	...........	1467.52
	1163	29.1	1.36991E-001	-7.67366E-006	0.00000E+000	1.37003E-001	0.00000E+000	9	...........	1467.52
	1164	29.125	1.35990E-001	-7.73723E-006	0.00000E+000	1.36003E-001	0.00000E+000	9	...........	1467.52
	1165	29.15	1.34997E-001	-7.80157E-006	0.00000E+000	1.35003E-001	0.00000E+000	9	...........	1467.52
	1166	29.175	1.33993E-001	-7.88264E-006	0.00000E+000	1.34004E-001	0.00000E+000	9	...........	1467.52
	1167	29.2	1.33007E-001	-7.96076E-006	0.00000E+000	1.33004E-001	0.00000E+000	9	...........	1467.52
	1168	29.225	1.32006E-001	-8.02975E-006	0.00000E+000	1.32004E-001	0.00000E+000	9	...........	1467.52
	1169	29.25	1.31003E-001	-8.09398E-006	0.00000E+000	1.31005E-001	0.00000E+000	9	...........	1467.52
	1170	29.275	1.30000E-001	-8.17488E-006	0.00000E+000	1.30005E-001	0.00000E+000	9	...........	1467.52
	1171	29.3	1.29002E-001	-8.25586E-006	0.00000E+000	1.29005E-001	0.00000E+000	9	...........	1467.52
	1172	29.325	1.28013E-001	-8.32652E-006	0.00000E+000	1.28006E-001	0.00000E+000	9	...........	1467.52
	1173	29.35	1.26996E-001	-8.40032E-006	0.00000E+000	1.27006E-001	0.00000E+000	9	...........	1467.52
	1174	29.375	1.25989E-001	-8.49859E-006	0.00000E+000	1.25994E-001	0.00000E+000	9	...........	1467.52
	1175	29.4	1.24989E-001	-8.57337E-006	0.00000E+000	1.24994E-001	0.00000E+000	9	...........	1467.52
	1176	29.425	1.23983E-001	-8.64828E-006	0.00000E+000	1.23995E-001	0.00000E+000	9	...........	1467.52
	1177	29.45	1.22989E-001	-8.72174E-006	0.00000E+000	1.22995E-001	0.00000E+000	9	...........	1467.52
	1178	29.475	1.21997E-001	-8.81083E-006	0.00000E+000	1.21995E-001	0.00000E+000	9	...........	1467.52
	1179	29.5	1.20995E-001	-8.89161E-006	0.00000E+000	1.20996E-001	0.00000E+000	9	...........	1467.52
	1180	29.525	1.20001E-001	-8.96554E-006	0.00000E+000	1.19996E-001	0.00000E+000	9	...........	1467.52
	1181	29.55	1.19001E-001	-9.04555E-006	0.00000E+000	1.18996E-001	0.00000E+000	9	...........	1467.52
	1182	29.575	1.17991E-001	-9.13494E-006	0.00000E+000	1.17997E-001	0.00000E+000	9	...........	1467.52
	1183	29.6	1.16993E-001	-9.22260E-006	0.00000E+000	1.16997E-001	0.00000E+000	9	...........	1467.52
	1184	29.625	1.16001E-001	-9.29931E-006	0.00000E+000	1.15997E-001	0.00000E+000	9	...........	1467.52
	1185	29.65	1.14990E-001	-9.37981E-006	0.00000E+000	1.14998E-001	0.00000E+000	9	...........	1467.52
	1186	29.675	1.13978E-001	-9.47036E-006	0.00000E+000	1.13998E-001	0.00000E+000	9	...........	1467.52
	1187	29.7	1.12975E-001	-9.56274E-006	0.00000E+000	1.12999E-001	0.00000E+000	9	...........	1467.52
	1188	29.725	1.11983E-001	-9.64081E-006	0.00000E+000	1.11999E-001	0.00000E+000	9	...........	1467.52
	1189	29.75	1.10990E-001	-9.72252E-006	0.00000E+000	1.10999E-001	0.00000E+000	9	...........	1467.52
	1190	29.775	1.09997E-001	-9.81612E-006	0.00000E+000	1.10000E-001	0.00000E+000	9	...........	1467.52
	1191	29.8	1.09000E-001	-9.90792E-006	0.00000E+000	1.09000E-001	0.00000E+000	9	...........	1467.52
	1192	29.825	1.07994E-001	-9.99002E-006	0.00000E+000	1.08000E-001	0.00000E+000	9	...........	1467.52
	1193	29.85	1.06991E-001	-1.00757E-005	0.00000E+000	1.07001E-001	0.00000E+000	9	...........	1467.52
	1194	29.875	1.05996E-001	-1.01703E-005	0.00000E+000	1.06001E-001	0.00000E+000	9	...........	1467.52
	1195	29.9	1.04998E-001	-1.02604E-005	0.00000E+000	1.05001E-001	0.00000E+000	9	...........	1467.52
	1196	29.925	1.04007E-001	-1.03406E-005	0.00000E+000	1.04002E-001	0.00000E+000	9	...........	1467.52
	1197	29.95	1.03010E-001	-1.04238E-005	0.00000E+000	1.03002E-001	0.00000E+000	9	...........	1467.52
	1198	29.975	1.01988E-001	-1.05273E-005	0.00000E+000	1.02002E-001	0.00000E+000	9	...........	1467.52
	1199	30	1.00991E-001	-1.06171E-005	0.00000E+000	1.01003E-001	0.00000E+000	9	...........	1467.52
	1200	30.025	9.99992E-002	-1.06922E-005	0.00000E+000	1.00003E-001	0.00000E+000	9	...........	1467.52
CURVE4	TABLE
	Pt	T	Vf	Im	Vu	Sig	Ach	IERange	Over	Temp
	#	s	V vs. Ref.	A	V	V	V	#	bits	deg C
	1201	30.05	9.99916E-002	-1.00504E-005	0.00000E+000	1.00003E-001	0.00000E+000	9	...........	1467.52