File: input/ECSA_test/CV_ECSA_#1_#3.DTA
EXPLAIN
TAG	CV
TITLE	LABEL	ECSA	Test Identifier
DATE	LABEL	2/13/2024	Date
TIME	LABEL	8:48:01	Time
NOTES	NOTES	1	Notes...

PSTAT	PSTAT	IFC1010-36068	Potentiostat
VINIT	POTEN	1.00000E-001	F	Initial E (V)
VLIMIT1	POTEN	3.00000E-001	F	Scan Limit 1 (V)
VLIMIT2	POTEN	1.00000E-001	F	Scan Limit 2 (V)
VFINAL	POTEN	1.00000E-001	F	Final E (V)
SCANRATE	QUANT	3.00000E+001	A Real Number
STEPSIZE	QUANT	1.00000E+000	Step Size (mV)
CYCLES	IQUANT	3	Cycles (#)
IMODE	SELECTOR	1	I/E Range Mode
IRANGE	QUANT	3.00000E-001	Max Current (mA)
AREA	QUANT	1.00000E+000	Sample Area (cm^2)
EQDELAY	QUANT	0.00000E+000	Equil. Time (s)
IRCOMP	SELECTOR	0	IRComp
PFCOR	QUANT	5.00000E+001	PF Corr. (ohm)
SAMPLINGMODE	SELECTOR	2	Sampling Mode
EOC	QUANT	0.3246219	Open Circuit (V)
ELECTRODETYPE	SELECTOR	0	Electrode Type
STRIPPING	TOGGLE	F	Used for Stripping
SEQUENCER	TOGGLE	TRUE	Run as Sequence
PSTATMODEL	IQUANT	64	Pstat Model
PSTATSECTION	LABEL	IFC1010-36068	Pstat Section
PSTATSERIALNO	LABEL	36068	Pstat Serial Number
CTRLMODE	IQUANT	1	Control Mode
ELECTROMETER	IQUANT	0	RE=0 or CS=1
IESTAB	IQUANT	2	I/E Stability
CASPEED	IQUANT	4	Control Amp Speed
CONVENTION	IQUANT	1	Current Convention
ICHRANGE	IQUANT	2	Ich Range
ICHRANGEMODE	TOGGLE	F	Ich Auto Range
ICHOFFSETENABLE	TOGGLE	F	Ich Offset Enable
ICHOFFSET	QUANT	0	Ich Offset (V)
ICHFILTER	IQUANT	3	Ich Filter
VCHRANGE	IQUANT	2	Vch Range
VCHRANGEMODE	TOGGLE	F	Vch Auto Range
VCHOFFSETENABLE	TOGGLE	F	Vch Offset Enable
VCHOFFSET	QUANT	0	Vch Offset (V)
VCHFILTER	IQUANT	3	Vch Filter
IERANGELOWERLIMIT	IQUANT	4	I/E Range Lower Limit
IERANGEMODE	TOGGLE	F	I/E AutoRange
IERANGE	IQUANT	9	I/E Range
ACHSELECT	IQUANT	0	Ach Select
ACHRANGE	IQUANT	2	Ach Range
ACHOFFSETENABLE	TOGGLE	F	Ach Offset Enable
ACHOFFSET	QUANT	0	Ach Offset (V)
ACHFILTER	IQUANT	1	Ach Filter
SENSECABLEID	IQUANT	13	Sense Cable ID
PWRCABLEID	IQUANT	13	Power Cable ID
DCCALDATE	LABEL	8/11/2023	DC Calibration Date
ACCALDATE	LABEL	6/2/2023	AC Calibration Date
FRAMEWORKVERSION	LABEL	7.10.3	Framework Version
INSTRUMENTVERSION	LABEL	4.91	Instrument Version
COMMVERSION	LABEL	3.10	Communications Version
CPUPLDVERSION	LABEL	2.22	CPU PLD Version
CTRLPLDVERSION	LABEL	0.00	CTRL PLD Version
PSTATPLDVERSION	LABEL	0.00	PSTAT PLD Version
CURVE1	TABLE
	Pt	T	Vf	Im	Vu	Sig	Ach	IERange	Over	Temp
	#	s	V vs. Ref.	A	V	V	V	#	bits	deg C
	0	0.033333	9.99934E-002	-9.49095E-006	0.00000E+000	1.00003E-001	0.00000E+000	9	...........	1467.52
	1	0.066667	1.00990E-001	-8.75456E-006	0.00000E+000	1.01003E-001	0.00000E+000	9	...........	1467.85
	2	0.1	1.01986E-001	-8.55218E-006	0.00000E+000	1.02002E-001	0.00000E+000	9	...........	1467.97
	3	0.133333	1.03009E-001	-8.39925E-006	0.00000E+000	1.03002E-001	0.00000E+000	9	...........	1467.97
	4	0.166667	1.04008E-001	-8.24433E-006	0.00000E+000	1.04002E-001	0.00000E+000	9	...........	1467.97
	5	0.2	1.04992E-001	-8.10708E-006	0.00000E+000	1.05001E-001	0.00000E+000	9	...........	1467.97
	6	0.233333	1.05993E-001	-7.98026E-006	0.00000E+000	1.06001E-001	0.00000E+000	9	...........	1467.97
	7	0.266667	1.06990E-001	-7.84166E-006	0.00000E+000	1.07001E-001	0.00000E+000	9	...........	1467.97
	8	0.3	1.07984E-001	-7.70983E-006	0.00000E+000	1.08000E-001	0.00000E+000	9	...........	1467.97
	9	0.333333	1.08989E-001	-7.59135E-006	0.00000E+000	1.09000E-001	0.00000E+000	9	...........	1467.97
	10	0.366667	1.09987E-001	-7.46149E-006	0.00000E+000	1.10000E-001	0.00000E+000	9	...........	1467.97
	11	0.4	1.10977E-001	-7.34529E-006	0.00000E+000	1.10999E-001	0.00000E+000	9	...........	1467.97
	12	0.433333	1.11970E-001	-7.23451E-006	0.00000E+000	1.11999E-001	0.00000E+000	9	...........	1467.97
	13	0.466667	1.12972E-001	-7.11299E-006	0.00000E+000	1.12999E-001	0.00000E+000	9	...........	1467.97
	14	0.5	1.13968E-001	-7.00096E-006	0.00000E+000	1.13998E-001	0.00000E+000	9	...........	1467.97
	15	0.533333	1.14987E-001	-6.90301E-006	0.00000E+000	1.14998E-001	0.00000E+000	9	...........	1467.97
	16	0.566667	1.15992E-001	-6.79135E-006	0.00000E+000	1.15997E-001	0.00000E+000	9	...........	1467.97
	17	0.6	1.16980E-001	-6.67981E-006	0.00000E+000	1.16997E-001	0.00000E+000	9	...........	1467.97
	18	0.633333	1.17981E-001	-6.58508E-006	0.00000E+000	1.17997E-001	0.00000E+000	9	...........	1467.97
	19	0.666667	1.18988E-001	-6.48214E-006	0.00000E+000	1.18996E-001	0.00000E+000	9	...........	1467.97
	20	0.7	1.19988E-001	-6.37879E-006	0.00000E+000	1.19996E-001	0.00000E+000	9	...........	1467.97
	21	0.733333	1.20983E-001	-6.29110E-006	0.00000E+000	1.20996E-001	0.00000E+000	9	...........	1467.97
	22	0.766667	1.21989E-001	-6.18689E-006	0.00000E+000	1.21995E-001	0.00000E+000	9	...........	1467.97
	23	0.8	1.22980E-001	-6.09446E-006	0.00000E+000	1.22995E-001	0.00000E+000	9	...........	1467.97
	24	0.833333	1.23980E-001	-6.01086E-006	0.00000E+000	1.23995E-001	0.00000E+000	9	...........	1467.97
	25	0.866667	1.24978E-001	-5.91798E-006	0.00000E+000	1.24994E-001	0.00000E+000	9	...........	1467.97
	26	0.9	1.25977E-001	-5.82852E-006	0.00000E+000	1.25994E-001	0.00000E+000	9	...........	1467.97
	27	0.933333	1.26988E-001	-5.74340E-006	0.00000E+000	1.27006E-001	0.00000E+000	9	...........	1467.97
	28	0.96667	1.27999E-001	-5.65623E-006	0.00000E+000	1.28006E-001	0.00000E+000	9	...........	1467.97
	29	1	1.28993E-001	-5.56620E-006	0.00000E+000	1.29005E-001	0.00000E+000	9	...........	1467.97
	30	1.03333	1.29997E-001	-5.48708E-006	0.00000E+000	1.30005E-001	0.00000E+000	9	...........	1467.97
	31	1.06667	1.31004E-001	-5.39492E-006	0.00000E+000	1.31005E-001	0.00000E+000	9	...........	1467.64
	32	1.1	1.32004E-001	-5.31452E-006	0.00000E+000	1.32004E-001	0.00000E+000	9	...........	1467.52
	33	1.13333	1.32995E-001	-5.24204E-006	0.00000E+000	1.33004E-001	0.00000E+000	9	...........	1467.52
	34	1.16667	1.33984E-001	-5.15502E-006	0.00000E+000	1.34004E-001	0.00000E+000	9	...........	1467.52
	35	1.2	1.34986E-001	-5.07328E-006	0.00000E+000	1.35003E-001	0.00000E+000	9	...........	1467.52
	36	1.23333	1.35986E-001	-5.00614E-006	0.00000E+000	1.36003E-001	0.00000E+000	9	...........	1467.52
	37	1.26667	1.36984E-001	-4.92376E-006	0.00000E+000	1.37003E-001	0.00000E+000	9	...........	1467.52
	38	1.3	1.37986E-001	-4.83950E-006	0.00000E+000	1.38002E-001	0.00000E+000	9	...........	1467.52
	39	1.33333	1.38981E-001	-4.77525E-006	0.00000E+000	1.39002E-001	0.00000E+000	9	...........	1467.52
	40	1.36667	1.39972E-001	-4.70057E-006	0.00000E+000	1.40002E-001	0.00000E+000	9	...........	1467.52
	41	1.4	1.40999E-001	-4.62249E-006	0.00000E+000	1.41001E-001	0.00000E+000	9	...........	1467.52
	42	1.43333	1.41994E-001	-4.56314E-006	0.00000E+000	1.42001E-001	0.00000E+000	9	...........	1467.52
	43	1.46667	1.42995E-001	-4.48414E-006	0.00000E+000	1.43001E-001	0.00000E+000	9	...........	1467.52
	44	1.5	1.43988E-001	-4.40662E-006	0.00000E+000	1.44000E-001	0.00000E+000	9	...........	1467.52
	45	1.53333	1.44976E-001	-4.35201E-006	0.00000E+000	1.45000E-001	0.00000E+000	9	...........	1467.52
	46	1.56667	1.45978E-001	-4.27312E-006	0.00000E+000	1.46000E-001	0.00000E+000	9	...........	1467.52
	47	1.6	1.46982E-001	-4.20301E-006	0.00000E+000	1.46999E-001	0.00000E+000	9	...........	1467.52
	48	1.63333	1.47981E-001	-4.14854E-006	0.00000E+000	1.47999E-001	0.00000E+000	9	...........	1467.52
	49	1.66667	1.48972E-001	-4.07524E-006	0.00000E+000	1.48998E-001	0.00000E+000	9	...........	1467.52
	50	1.7	1.49969E-001	-4.00194E-006	0.00000E+000	1.49998E-001	0.00000E+000	9	...........	1467.52
	51	1.73333	1.50961E-001	-3.94626E-006	0.00000E+000	1.50998E-001	0.00000E+000	9	...........	1467.52
	52	1.76667	1.51965E-001	-3.87495E-006	0.00000E+000	1.51997E-001	0.00000E+000	9	...........	1467.52
	53	1.8	1.52958E-001	-3.80765E-006	0.00000E+000	1.52997E-001	0.00000E+000	9	...........	1467.52
	54	1.83333	1.53973E-001	-3.74761E-006	0.00000E+000	1.53997E-001	0.00000E+000	9	...........	1467.52
	55	1.86667	1.54979E-001	-3.67884E-006	0.00000E+000	1.54996E-001	0.00000E+000	9	...........	1467.52
	56	1.9	1.55984E-001	-3.60978E-006	0.00000E+000	1.55996E-001	0.00000E+000	9	...........	1467.52
	57	1.93333	1.56994E-001	-3.55233E-006	0.00000E+000	1.56996E-001	0.00000E+000	9	...........	1467.52
	58	1.96667	1.57998E-001	-3.48247E-006	0.00000E+000	1.57995E-001	0.00000E+000	9	...........	1467.52
	59	2	1.58982E-001	-3.41470E-006	0.00000E+000	1.58995E-001	0.00000E+000	9	...........	1467.52
	60	2.03333	1.59976E-001	-3.36666E-006	0.00000E+000	1.59995E-001	0.00000E+000	9	...........	1467.52
	61	2.06667	1.60969E-001	-3.30344E-006	0.00000E+000	1.60994E-001	0.00000E+000	9	...........	1467.86
	62	2.1	1.61962E-001	-3.23680E-006	0.00000E+000	1.61994E-001	0.00000E+000	9	...........	1467.97
	63	2.13333	1.62977E-001	-3.17863E-006	0.00000E+000	1.63006E-001	0.00000E+000	9	...........	1467.97
	64	2.16667	1.63989E-001	-3.11835E-006	0.00000E+000	1.64006E-001	0.00000E+000	9	...........	1467.97
	65	2.2	1.64969E-001	-3.05790E-006	0.00000E+000	1.65005E-001	0.00000E+000	9	...........	1467.97
	66	2.23333	1.65963E-001	-3.00989E-006	0.00000E+000	1.66005E-001	0.00000E+000	9	...........	1467.97
	67	2.26667	1.66985E-001	-2.94195E-006	0.00000E+000	1.67005E-001	0.00000E+000	9	...........	1467.97
	68	2.3	1.67990E-001	-2.87864E-006	0.00000E+000	1.68004E-001	0.00000E+000	9	...........	1467.97
	69	2.33333	1.68991E-001	-2.82582E-006	0.00000E+000	1.69004E-001	0.00000E+000	9	...........	1467.97
	70	2.36667	1.69990E-001	-2.76295E-006	0.00000E+000	1.70004E-001	0.00000E+000	9	...........	1467.97
	71	2.4	1.70978E-001	-2.70266E-006	0.00000E+000	1.71003E-001	0.00000E+000	9	...........	1467.97
	72	2.43333	1.71978E-001	-2.65641E-006	0.00000E+000	1.72003E-001	0.00000E+000	9	...........	1467.97
	73	2.46667	1.72988E-001	-2.59636E-006	0.00000E+000	1.73003E-001	0.00000E+000	9	...........	1467.97
	74	2.5	1.73986E-001	-2.53362E-006	0.00000E+000	1.74002E-001	0.00000E+000	9	...........	1467.97
	75	2.53333	1.74981E-001	-2.48803E-006	0.00000E+000	1.75002E-001	0.00000E+000	9	...........	1467.97
	76	2.56667	1.75988E-001	-2.42878E-006	0.00000E+000	1.76002E-001	0.00000E+000	9	...........	1467.97
	77	2.6	1.76972E-001	-2.36519E-006	0.00000E+000	1.77001E-001	0.00000E+000	9	...........	1467.97
	78	2.63333	1.77969E-001	-2.31965E-006	0.00000E+000	1.78001E-001	0.00000E+000	9	...........	1467.97
	79	2.66667	1.78965E-001	-2.26493E-006	0.00000E+000	1.79000E-001	0.00000E+000	9	...........	1467.97
	80	2.7	1.79976E-001	-2.20736E-006	0.00000E+000	1.80000E-001	0.00000E+000	9	...........	1467.97
	81	2.73333	1.80993E-001	-2.15962E-006	0.00000E+000	1.81000E-001	0.00000E+000	9	...........	1467.97
	82	2.76667	1.82000E-001	-2.10125E-006	0.00000E+000	1.81999E-001	0.00000E+000	9	...........	1467.97
	83	2.8	1.82990E-001	-2.03880E-006	0.00000E+000	1.82999E-001	0.00000E+000	9	...........	1467.97
	84	2.83333	1.83987E-001	-1.99373E-006	0.00000E+000	1.83999E-001	0.00000E+000	9	...........	1467.97
	85	2.86667	1.84987E-001	-1.93798E-006	0.00000E+000	1.84998E-001	0.00000E+000	9	...........	1467.97
	86	2.9	1.85984E-001	-1.87775E-006	0.00000E+000	1.85998E-001	0.00000E+000	9	...........	1467.97
	87	2.93333	1.86978E-001	-1.83811E-006	0.00000E+000	1.86998E-001	0.00000E+000	9	...........	1467.97
	88	2.96667	1.87980E-001	-1.78450E-006	0.00000E+000	1.87997E-001	0.00000E+000	9	...........	1467.97
	89	3	1.88971E-001	-1.72480E-006	0.00000E+000	1.88997E-001	0.00000E+000	9	...........	1467.97
	90	3.03333	1.89972E-001	-1.68457E-006	0.00000E+000	1.89997E-001	0.00000E+000	9	...........	1467.97
	91	3.06667	1.90973E-001	-1.62770E-006	0.00000E+000	1.90996E-001	0.00000E+000	9	...........	1467.97
	92	3.1	1.92010E-001	-1.56907E-006	0.00000E+000	1.91996E-001	0.00000E+000	9	...........	1467.97
	93	3.13333	1.93009E-001	-1.52577E-006	0.00000E+000	1.92996E-001	0.00000E+000	9	...........	1467.97
	94	3.16667	1.94007E-001	-1.47417E-006	0.00000E+000	1.93995E-001	0.00000E+000	9	...........	1467.97
	95	3.2	1.94990E-001	-1.42148E-006	0.00000E+000	1.94995E-001	0.00000E+000	9	...........	1467.97
	96	3.23333	1.95988E-001	-1.38411E-006	0.00000E+000	1.95995E-001	0.00000E+000	9	...........	1467.97
	97	3.26667	1.96982E-001	-1.33082E-006	0.00000E+000	1.96994E-001	0.00000E+000	9	...........	1467.97
	98	3.3	1.97970E-001	-1.27891E-006	0.00000E+000	1.97994E-001	0.00000E+000	9	...........	1467.97
	99	3.33333	1.98993E-001	-1.22576E-006	0.00000E+000	1.99006E-001	0.00000E+000	9	...........	1467.97
	100	3.36667	1.99993E-001	-1.18246E-006	0.00000E+000	2.00006E-001	0.00000E+000	9	...........	1467.97
	101	3.4	2.00981E-001	-1.13023E-006	0.00000E+000	2.01005E-001	0.00000E+000	9	...........	1467.97
	102	3.43333	2.01987E-001	-1.08319E-006	0.00000E+000	2.02005E-001	0.00000E+000	9	...........	1467.97
	103	3.46667	2.02976E-001	-1.03564E-006	0.00000E+000	2.03005E-001	0.00000E+000	9	...........	1467.97
	104	3.5	2.03970E-001	-9.86527E-007	0.00000E+000	2.04004E-001	0.00000E+000	9	...........	1467.97
	105	3.53333	2.04987E-001	-9.47261E-007	0.00000E+000	2.05004E-001	0.00000E+000	9	...........	1467.97
	106	3.56667	2.05990E-001	-9.00688E-007	0.00000E+000	2.06004E-001	0.00000E+000	9	...........	1467.97
	107	3.6	2.06974E-001	-8.47093E-007	0.00000E+000	2.07003E-001	0.00000E+000	9	...........	1467.97
	108	3.63333	2.07987E-001	-8.13447E-007	0.00000E+000	2.08003E-001	0.00000E+000	9	...........	1467.97
	109	3.66667	2.08981E-001	-7.69861E-007	0.00000E+000	2.09003E-001	0.00000E+000	9	...........	1467.97
	110	3.7	2.09981E-001	-7.18467E-007	0.00000E+000	2.10002E-001	0.00000E+000	9	...........	1467.97
	111	3.73333	2.10978E-001	-6.78100E-007	0.00000E+000	2.11002E-001	0.00000E+000	9	...........	1467.97
	112	3.76667	2.11982E-001	-6.33545E-007	0.00000E+000	2.12001E-001	0.00000E+000	9	...........	1467.97
	113	3.8	2.12968E-001	-5.80500E-007	0.00000E+000	2.13001E-001	0.00000E+000	9	...........	1467.97
	114	3.83333	2.13961E-001	-5.52427E-007	0.00000E+000	2.14001E-001	0.00000E+000	9	...........	1467.97
	115	3.86667	2.14969E-001	-5.08856E-007	0.00000E+000	2.15000E-001	0.00000E+000	9	...........	1467.97
	116	3.9	2.15971E-001	-4.55928E-007	0.00000E+000	2.16000E-001	0.00000E+000	9	...........	1467.97
	117	3.93333	2.16962E-001	-4.23668E-007	0.00000E+000	2.17000E-001	0.00000E+000	9	...........	1467.97
	118	3.96667	2.17986E-001	-3.81799E-007	0.00000E+000	2.17999E-001	0.00000E+000	9	...........	1467.97
	119	4	2.18973E-001	-3.33975E-007	0.00000E+000	2.18999E-001	0.00000E+000	9	...........	1467.97
	120	4.03333	2.19972E-001	-2.98011E-007	0.00000E+000	2.19999E-001	0.00000E+000	9	...........	1467.97
	121	4.06667	2.20976E-001	-2.58795E-007	0.00000E+000	2.20998E-001	0.00000E+000	9	...........	1467.97
	122	4.1	2.21971E-001	-2.13974E-007	0.00000E+000	2.21998E-001	0.00000E+000	9	...........	1467.97
	123	4.13333	2.22969E-001	-1.80078E-007	0.00000E+000	2.22998E-001	0.00000E+000	9	...........	1467.97
	124	4.16667	2.23979E-001	-1.43631E-007	0.00000E+000	2.23997E-001	0.00000E+000	9	...........	1467.97
	125	4.2	2.24964E-001	-9.85928E-008	0.00000E+000	2.24997E-001	0.00000E+000	9	...........	1467.97
	126	4.23333	2.25960E-001	-6.53147E-008	0.00000E+000	2.25997E-001	0.00000E+000	9	...........	1467.97
	127	4.26667	2.26963E-001	-3.08689E-008	0.00000E+000	2.26996E-001	0.00000E+000	9	...........	1467.97
	128	4.3	2.27974E-001	1.62877E-008	0.00000E+000	2.27996E-001	0.00000E+000	9	...........	1467.97
	129	4.33333	2.28968E-001	4.59794E-008	0.00000E+000	2.28996E-001	0.00000E+000	9	...........	1467.97
	130	4.36667	2.29955E-001	7.75895E-008	0.00000E+000	2.29995E-001	0.00000E+000	9	...........	1467.97
	131	4.4	2.30960E-001	1.25397E-007	0.00000E+000	2.30995E-001	0.00000E+000	9	...........	1467.97
	132	4.43333	2.31966E-001	1.52369E-007	0.00000E+000	2.31994E-001	0.00000E+000	9	...........	1467.97
	133	4.46667	2.32971E-001	1.86265E-007	0.00000E+000	2.32994E-001	0.00000E+000	9	...........	1467.97
	134	4.5	2.33970E-001	2.33705E-007	0.00000E+000	2.33994E-001	0.00000E+000	9	...........	1467.97
	135	4.53333	2.34975E-001	2.67000E-007	0.00000E+000	2.35006E-001	0.00000E+000	9	...........	1467.97
	136	4.56667	2.35975E-001	2.96708E-007	0.00000E+000	2.36006E-001	0.00000E+000	9	...........	1467.97
	137	4.6	2.36979E-001	3.42814E-007	0.00000E+000	2.37005E-001	0.00000E+000	9	...........	1467.97
	138	4.63333	2.37970E-001	3.70187E-007	0.00000E+000	2.38005E-001	0.00000E+000	9	...........	1467.97
	139	4.66667	2.38970E-001	4.06217E-007	0.00000E+000	2.39005E-001	0.00000E+000	9	...........	1467.97
	140	4.7	2.39979E-001	4.53141E-007	0.00000E+000	2.40004E-001	0.00000E+000	9	...........	1467.97
	141	4.73333	2.40965E-001	4.77444E-007	0.00000E+000	2.41004E-001	0.00000E+000	9	...........	1467.97
	142	4.76667	2.41971E-001	5.10672E-007	0.00000E+000	2.42004E-001	0.00000E+000	9	...........	1467.97
	143	4.8	2.42980E-001	5.54910E-007	0.00000E+000	2.43003E-001	0.00000E+000	9	...........	1467.97
	144	4.83333	2.43999E-001	5.79447E-007	0.00000E+000	2.44003E-001	0.00000E+000	9	...........	1467.97
	145	4.86667	2.44993E-001	6.06053E-007	0.00000E+000	2.45002E-001	0.00000E+000	9	...........	1467.97
	146	4.9	2.45981E-001	6.50207E-007	0.00000E+000	2.46002E-001	0.00000E+000	9	...........	1467.97
	147	4.93333	2.46973E-001	6.74528E-007	0.00000E+000	2.47002E-001	0.00000E+000	9	...........	1467.97
	148	4.96667	2.47971E-001	7.03119E-007	0.00000E+000	2.48001E-001	0.00000E+000	9	...........	1467.97
	149	5	2.48972E-001	7.44620E-007	0.00000E+000	2.49001E-001	0.00000E+000	9	...........	1467.97
	150	5.03333	2.49978E-001	7.69558E-007	0.00000E+000	2.50001E-001	0.00000E+000	9	...........	1467.97
	151	5.06667	2.50976E-001	8.00568E-007	0.00000E+000	2.51000E-001	0.00000E+000	9	...........	1467.90
	152	5.1	2.51972E-001	8.41402E-007	0.00000E+000	2.52000E-001	0.00000E+000	9	...........	1467.88
	153	5.13333	2.52960E-001	8.63221E-007	0.00000E+000	2.53000E-001	0.00000E+000	9	...........	1467.88
	154	5.16667	2.53960E-001	8.91061E-007	0.00000E+000	2.53999E-001	0.00000E+000	9	...........	1467.88
	155	5.2	2.54955E-001	9.33930E-007	0.00000E+000	2.54999E-001	0.00000E+000	9	...........	1467.88
	156	5.23333	2.55967E-001	9.54348E-007	0.00000E+000	2.55999E-001	0.00000E+000	9	...........	1467.88
	157	5.26667	2.56973E-001	9.76583E-007	0.00000E+000	2.56998E-001	0.00000E+000	9	...........	1467.88
	158	5.3	2.57977E-001	1.01545E-006	0.00000E+000	2.57998E-001	0.00000E+000	9	...........	1467.88
	159	5.33333	2.58970E-001	1.03889E-006	0.00000E+000	2.58998E-001	0.00000E+000	9	...........	1467.88
	160	5.36667	2.59963E-001	1.06189E-006	0.00000E+000	2.59997E-001	0.00000E+000	9	...........	1467.88
	161	5.4	2.60964E-001	1.10202E-006	0.00000E+000	2.60997E-001	0.00000E+000	9	...........	1467.88
	162	5.43333	2.61969E-001	1.12462E-006	0.00000E+000	2.61997E-001	0.00000E+000	9	...........	1467.88
	163	5.46667	2.62975E-001	1.14843E-006	0.00000E+000	2.62996E-001	0.00000E+000	9	...........	1467.88
	164	5.5	2.63970E-001	1.18810E-006	0.00000E+000	2.63996E-001	0.00000E+000	9	...........	1467.88
	165	5.53333	2.64963E-001	1.20549E-006	0.00000E+000	2.64995E-001	0.00000E+000	9	...........	1467.88
	166	5.56667	2.65965E-001	1.23078E-006	0.00000E+000	2.65995E-001	0.00000E+000	9	...........	1467.88
	167	5.6	2.66951E-001	1.26733E-006	0.00000E+000	2.66995E-001	0.00000E+000	9	...........	1467.88
	168	5.63333	2.67949E-001	1.29158E-006	0.00000E+000	2.67994E-001	0.00000E+000	9	...........	1467.88
	169	5.66667	2.68990E-001	1.31694E-006	0.00000E+000	2.68994E-001	0.00000E+000	9	...........	1467.88
	170	5.7	2.69991E-001	1.35634E-006	0.00000E+000	2.69994E-001	0.00000E+000	9	...........	1467.88
	171	5.73333	2.70997E-001	1.38123E-006	0.00000E+000	2.71006E-001	0.00000E+000	9	...........	1467.88
	172	5.76667	2.71984E-001	1.39901E-006	0.00000E+000	2.72006E-001	0.00000E+000	9	...........	1467.88
	173	5.8	2.72979E-001	1.43175E-006	0.00000E+000	2.73005E-001	0.00000E+000	9	...........	1467.88
	174	5.83333	2.73973E-001	1.45489E-006	0.00000E+000	2.74005E-001	0.00000E+000	9	...........	1467.88
	175	5.86667	2.74972E-001	1.48183E-006	0.00000E+000	2.75004E-001	0.00000E+000	9	...........	1467.88
	176	5.9	2.75978E-001	1.51597E-006	0.00000E+000	2.76004E-001	0.00000E+000	9	...........	1467.88
	177	5.93333	2.76977E-001	1.54003E-006	0.00000E+000	2.77004E-001	0.00000E+000	9	...........	1467.88
	178	5.96667	2.77977E-001	1.56163E-006	0.00000E+000	2.78003E-001	0.00000E+000	9	...........	1467.88
	179	6	2.78966E-001	1.59959E-006	0.00000E+000	2.79003E-001	0.00000E+000	9	...........	1467.88
	180	6.03333	2.79961E-001	1.62572E-006	0.00000E+000	2.80003E-001	0.00000E+000	9	...........	1467.88
	181	6.06667	2.80959E-001	1.64393E-006	0.00000E+000	2.81002E-001	0.00000E+000	9	...........	1467.59
	182	6.1	2.81972E-001	1.68145E-006	0.00000E+000	2.82002E-001	0.00000E+000	9	...........	1467.52
	183	6.13333	2.82977E-001	1.70051E-006	0.00000E+000	2.83002E-001	0.00000E+000	9	...........	1467.52
	184	6.16667	2.83988E-001	1.72473E-006	0.00000E+000	2.84001E-001	0.00000E+000	9	...........	1467.52
	185	6.2	2.84985E-001	1.76175E-006	0.00000E+000	2.85001E-001	0.00000E+000	9	...........	1467.52
	186	6.23333	2.85976E-001	1.78233E-006	0.00000E+000	2.86001E-001	0.00000E+000	9	...........	1467.52
	187	6.26667	2.86979E-001	1.80682E-006	0.00000E+000	2.87000E-001	0.00000E+000	9	...........	1467.52
	188	6.3	2.87990E-001	1.84055E-006	0.00000E+000	2.88000E-001	0.00000E+000	9	...........	1467.52
	189	6.33333	2.88986E-001	1.86458E-006	0.00000E+000	2.89000E-001	0.00000E+000	9	...........	1467.52
	190	6.36667	2.89978E-001	1.88897E-006	0.00000E+000	2.89999E-001	0.00000E+000	9	...........	1467.52
	191	6.4	2.90960E-001	1.92807E-006	0.00000E+000	2.90999E-001	0.00000E+000	9	...........	1467.52
	192	6.43333	2.91969E-001	1.94747E-006	0.00000E+000	2.91999E-001	0.00000E+000	9	...........	1467.52
	193	6.46667	2.92965E-001	1.97046E-006	0.00000E+000	2.92998E-001	0.00000E+000	9	...........	1467.52
	194	6.5	2.93959E-001	2.00510E-006	0.00000E+000	2.93998E-001	0.00000E+000	9	...........	1467.52
	195	6.53333	2.94989E-001	2.02991E-006	0.00000E+000	2.94998E-001	0.00000E+000	9	...........	1467.52
	196	6.56667	2.95984E-001	2.04951E-006	0.00000E+000	2.95997E-001	0.00000E+000	9	...........	1467.52
	197	6.6	2.96976E-001	2.08644E-006	0.00000E+000	2.96997E-001	0.00000E+000	9	...........	1467.52
	198	6.63333	2.97985E-001	2.11563E-006	0.00000E+000	2.97996E-001	0.00000E+000	9	...........	1467.52
	199	6.66667	2.98982E-001	2.13713E-006	0.00000E+000	2.98996E-001	0.00000E+000	9	...........	1467.52
	200	6.7	2.99977E-001	2.17643E-006	0.00000E+000	2.99996E-001	0.00000E+000	9	...........	1467.52
	201	6.73333	2.98991E-001	1.18718E-006	0.00000E+000	2.98996E-001	0.00000E+000	9	...........	1467.52
	202	6.76667	2.97993E-001	1.02901E-006	0.00000E+000	2.97996E-001	0.00000E+000	9	...........	1467.52
	203	6.8	2.96988E-001	9.30194E-007	0.00000E+000	2.96997E-001	0.00000E+000	9	...........	1467.52
	204	6.83333	2.96001E-001	8.40451E-007	0.00000E+000	2.95997E-001	0.00000E+000	9	...........	1467.52
	205	6.86667	2.95006E-001	7.46872E-007	0.00000E+000	2.94998E-001	0.00000E+000	9	...........	1467.52
	206	6.9	2.93977E-001	6.84503E-007	0.00000E+000	2.93998E-001	0.00000E+000	9	...........	1467.52
	207	6.93333	2.92979E-001	6.14911E-007	0.00000E+000	2.92998E-001	0.00000E+000	9	...........	1467.52
	208	6.96667	2.91979E-001	5.41532E-007	0.00000E+000	2.91999E-001	0.00000E+000	9	...........	1467.52
	209	7	2.90971E-001	4.89004E-007	0.00000E+000	2.90999E-001	0.00000E+000	9	...........	1467.52
	210	7.03333	2.89990E-001	4.26168E-007	0.00000E+000	2.89999E-001	0.00000E+000	9	...........	1467.52
	211	7.06667	2.88993E-001	3.66901E-007	0.00000E+000	2.89000E-001	0.00000E+000	9	...........	1467.52
	212	7.1	2.88005E-001	3.18293E-007	0.00000E+000	2.88000E-001	0.00000E+000	9	...........	1467.52
	213	7.13333	2.86997E-001	2.65348E-007	0.00000E+000	2.87000E-001	0.00000E+000	9	...........	1467.52
	214	7.16667	2.86002E-001	2.03146E-007	0.00000E+000	2.86001E-001	0.00000E+000	9	...........	1467.52
	215	7.2	2.85009E-001	1.60226E-007	0.00000E+000	2.85001E-001	0.00000E+000	9	...........	1467.52
	216	7.23333	2.84014E-001	1.13420E-007	0.00000E+000	2.84001E-001	0.00000E+000	9	...........	1467.52
	217	7.26667	2.83001E-001	5.59712E-008	0.00000E+000	2.83002E-001	0.00000E+000	9	...........	1467.52
	218	7.3	2.81991E-001	1.60708E-008	0.00000E+000	2.82002E-001	0.00000E+000	9	...........	1467.52
	219	7.33333	2.80981E-001	-3.01516E-008	0.00000E+000	2.81002E-001	0.00000E+000	9	...........	1467.52
	220	7.36667	2.79979E-001	-8.50314E-008	0.00000E+000	2.80003E-001	0.00000E+000	9	...........	1467.52
	221	7.4	2.78979E-001	-1.26250E-007	0.00000E+000	2.79003E-001	0.00000E+000	9	...........	1467.52
	222	7.43333	2.77990E-001	-1.71271E-007	0.00000E+000	2.78003E-001	0.00000E+000	9	...........	1467.52
	223	7.46667	2.77000E-001	-2.24800E-007	0.00000E+000	2.77004E-001	0.00000E+000	9	...........	1467.52
	224	7.5	2.75995E-001	-2.60146E-007	0.00000E+000	2.76004E-001	0.00000E+000	9	...........	1467.52
	225	7.53333	2.74990E-001	-2.95993E-007	0.00000E+000	2.75004E-001	0.00000E+000	9	...........	1467.52
	226	7.56667	2.73984E-001	-3.52424E-007	0.00000E+000	2.74005E-001	0.00000E+000	9	...........	1467.52
	227	7.6	2.72983E-001	-3.91774E-007	0.00000E+000	2.73005E-001	0.00000E+000	9	...........	1467.52
	228	7.63333	2.71986E-001	-4.28872E-007	0.00000E+000	2.72006E-001	0.00000E+000	9	...........	1467.52
	229	7.66667	2.71000E-001	-4.79715E-007	0.00000E+000	2.71006E-001	0.00000E+000	9	...........	1467.52
	230	7.7	2.69988E-001	-5.21834E-007	0.00000E+000	2.69994E-001	0.00000E+000	9	...........	1467.52
	231	7.73333	2.68997E-001	-5.50759E-007	0.00000E+000	2.68994E-001	0.00000E+000	9	...........	1467.52
	232	7.76667	2.67962E-001	-5.98699E-007	0.00000E+000	2.67994E-001	0.00000E+000	9	...........	1467.52
	233	7.8	2.66963E-001	-6.32945E-007	0.00000E+000	2.66995E-001	0.00000E+000	9	...........	1467.52
	234	7.83333	2.65965E-001	-6.72295E-007	0.00000E+000	2.65995E-001	0.00000E+000	9	...........	1467.52
	235	7.86667	2.64968E-001	-7.20819E-007	0.00000E+000	2.64995E-001	0.00000E+000	9	...........	1467.52
	236	7.9	2.63969E-001	-7.53096E-007	0.00000E+000	2.63996E-001	0.00000E+000	9	...........	1467.52
	237	7.93333	2.62971E-001	-7.87943E-007	0.00000E+000	2.62996E-001	0.00000E+000	9	...........	1467.52
	238	7.96667	2.61964E-001	-8.36450E-007	0.00000E+000	2.61997E-001	0.00000E+000	9	...........	1467.52
	239	8	2.60968E-001	-8.71947E-007	0.00000E+000	2.60997E-001	0.00000E+000	9	...........	1467.52
	240	8.03333	2.59975E-001	-9.05125E-007	0.00000E+000	2.59997E-001	0.00000E+000	9	...........	1467.52
	241	8.06667	2.58983E-001	-9.57052E-007	0.00000E+000	2.58998E-001	0.00000E+000	9	...........	1467.75
	242	8.1	2.57993E-001	-9.87445E-007	0.00000E+000	2.57998E-001	0.00000E+000	9	...........	1467.79
	243	8.13333	2.56995E-001	-1.02651E-006	0.00000E+000	2.56998E-001	0.00000E+000	9	...........	1467.79
	244	8.16667	2.55984E-001	-1.07397E-006	0.00000E+000	2.55999E-001	0.00000E+000	9	...........	1467.79
	245	8.2	2.54961E-001	-1.10293E-006	0.00000E+000	2.54999E-001	0.00000E+000	9	...........	1467.79
	246	8.23333	2.53971E-001	-1.13941E-006	0.00000E+000	2.53999E-001	0.00000E+000	9	...........	1467.79
	247	8.26667	2.52973E-001	-1.18550E-006	0.00000E+000	2.53000E-001	0.00000E+000	9	...........	1467.79
	248	8.3	2.51983E-001	-1.21796E-006	0.00000E+000	2.52000E-001	0.00000E+000	9	...........	1467.79
	249	8.33333	2.50988E-001	-1.25329E-006	0.00000E+000	2.51000E-001	0.00000E+000	9	...........	1467.79
	250	8.36667	2.49994E-001	-1.30113E-006	0.00000E+000	2.50001E-001	0.00000E+000	9	...........	1467.79
	251	8.4	2.48983E-001	-1.33547E-006	0.00000E+000	2.49001E-001	0.00000E+000	9	...........	1467.79
	252	8.43333	2.47987E-001	-1.37120E-006	0.00000E+000	2.48001E-001	0.00000E+000	9	...........	1467.79
	253	8.46667	2.46988E-001	-1.42099E-006	0.00000E+000	2.47002E-001	0.00000E+000	9	...........	1467.79
	254	8.5	2.45996E-001	-1.45401E-006	0.00000E+000	2.46002E-001	0.00000E+000	9	...........	1467.79
	255	8.53333	2.44999E-001	-1.48900E-006	0.00000E+000	2.45002E-001	0.00000E+000	9	...........	1467.79
	256	8.56667	2.44005E-001	-1.53541E-006	0.00000E+000	2.44003E-001	0.00000E+000	9	...........	1467.79
	257	8.6	2.42995E-001	-1.56797E-006	0.00000E+000	2.43003E-001	0.00000E+000	9	...........	1467.79
	258	8.63333	2.41989E-001	-1.60295E-006	0.00000E+000	2.42004E-001	0.00000E+000	9	...........	1467.79
	259	8.66667	2.40982E-001	-1.66163E-006	0.00000E+000	2.41004E-001	0.00000E+000	9	...........	1467.79
	260	8.7	2.39994E-001	-1.69436E-006	0.00000E+000	2.40004E-001	0.00000E+000	9	...........	1467.79
	261	8.73333	2.38988E-001	-1.73001E-006	0.00000E+000	2.39005E-001	0.00000E+000	9	...........	1467.79
	262	8.76667	2.37992E-001	-1.78013E-006	0.00000E+000	2.38005E-001	0.00000E+000	9	...........	1467.79
	263	8.8	2.36994E-001	-1.81518E-006	0.00000E+000	2.37005E-001	0.00000E+000	9	...........	1467.79
	264	8.83333	2.35985E-001	-1.85396E-006	0.00000E+000	2.36006E-001	0.00000E+000	9	...........	1467.79
	265	8.86667	2.34991E-001	-1.90854E-006	0.00000E+000	2.35006E-001	0.00000E+000	9	...........	1467.79
	266	8.9	2.33986E-001	-1.95114E-006	0.00000E+000	2.33994E-001	0.00000E+000	9	...........	1467.79
	267	8.93333	2.32984E-001	-1.98474E-006	0.00000E+000	2.32994E-001	0.00000E+000	9	...........	1467.79
	268	8.96667	2.31994E-001	-2.03725E-006	0.00000E+000	2.31994E-001	0.00000E+000	9	...........	1467.79
	269	9	2.31000E-001	-2.06858E-006	0.00000E+000	2.30995E-001	0.00000E+000	9	...........	1467.79
	270	9.03333	2.29983E-001	-2.11109E-006	0.00000E+000	2.29995E-001	0.00000E+000	9	...........	1467.79
	271	9.06667	2.28986E-001	-2.16502E-006	0.00000E+000	2.28996E-001	0.00000E+000	9	...........	1467.49
	272	9.1	2.27988E-001	-2.19984E-006	0.00000E+000	2.27996E-001	0.00000E+000	9	...........	1467.43
	273	9.13333	2.26981E-001	-2.24317E-006	0.00000E+000	2.26996E-001	0.00000E+000	9	...........	1467.43
	274	9.16667	2.25982E-001	-2.29493E-006	0.00000E+000	2.25997E-001	0.00000E+000	9	...........	1467.43
	275	9.2	2.24984E-001	-2.33897E-006	0.00000E+000	2.24997E-001	0.00000E+000	9	...........	1467.43
	276	9.23333	2.23999E-001	-2.38553E-006	0.00000E+000	2.23997E-001	0.00000E+000	9	...........	1467.43
	277	9.26667	2.22990E-001	-2.44147E-006	0.00000E+000	2.22998E-001	0.00000E+000	9	...........	1467.43
	278	9.3	2.21993E-001	-2.47730E-006	0.00000E+000	2.21998E-001	0.00000E+000	9	...........	1467.43
	279	9.33333	2.20993E-001	-2.52102E-006	0.00000E+000	2.20998E-001	0.00000E+000	9	...........	1467.43
	280	9.36667	2.19985E-001	-2.58421E-006	0.00000E+000	2.19999E-001	0.00000E+000	9	...........	1467.43
	281	9.4	2.18982E-001	-2.62777E-006	0.00000E+000	2.18999E-001	0.00000E+000	9	...........	1467.43
	282	9.43333	2.17998E-001	-2.66428E-006	0.00000E+000	2.17999E-001	0.00000E+000	9	...........	1467.43
	283	9.46667	2.16974E-001	-2.72346E-006	0.00000E+000	2.17000E-001	0.00000E+000	9	...........	1467.43
	284	9.5	2.15979E-001	-2.76356E-006	0.00000E+000	2.16000E-001	0.00000E+000	9	...........	1467.43
	285	9.5333	2.14981E-001	-2.81217E-006	0.00000E+000	2.15000E-001	0.00000E+000	9	...........	1467.43
	286	9.5667	2.13972E-001	-2.86942E-006	0.00000E+000	2.14001E-001	0.00000E+000	9	...........	1467.43
	287	9.6	2.12972E-001	-2.91751E-006	0.00000E+000	2.13001E-001	0.00000E+000	9	...........	1467.43
	288	9.6333	2.11986E-001	-2.95898E-006	0.00000E+000	2.12001E-001	0.00000E+000	9	...........	1467.43
	289	9.6667	2.10983E-001	-3.02363E-006	0.00000E+000	2.11002E-001	0.00000E+000	9	...........	1467.43
	290	9.7	2.09991E-001	-3.07221E-006	0.00000E+000	2.10002E-001	0.00000E+000	9	...........	1467.43
	291	9.7333	2.08996E-001	-3.11880E-006	0.00000E+000	2.09003E-001	0.00000E+000	9	...........	1467.43
	292	9.7667	2.07996E-001	-3.18479E-006	0.00000E+000	2.08003E-001	0.00000E+000	9	...........	1467.43
	293	9.8	2.06984E-001	-3.23246E-006	0.00000E+000	2.07003E-001	0.00000E+000	9	...........	1467.43
	294	9.8333	2.05996E-001	-3.27460E-006	0.00000E+000	2.06004E-001	0.00000E+000	9	...........	1467.43
	295	9.8667	2.04998E-001	-3.33983E-006	0.00000E+000	2.05004E-001	0.00000E+000	9	...........	1467.43
	296	9.9	2.03982E-001	-3.38724E-006	0.00000E+000	2.04004E-001	0.00000E+000	9	...........	1467.43
	297	9.9333	2.02981E-001	-3.43440E-006	0.00000E+000	2.03005E-001	0.00000E+000	9	...........	1467.43
	298	9.9667	2.01987E-001	-3.49890E-006	0.00000E+000	2.02005E-001	0.00000E+000	9	...........	1467.43
	299	10	2.00988E-001	-3.55231E-006	0.00000E+000	2.01005E-001	0.00000E+000	9	...........	1467.43
	300	10.0333	2.00003E-001	-3.60246E-006	0.00000E+000	2.00006E-001	0.00000E+000	9	...........	1467.43
	301	10.0667	1.99011E-001	-3.66386E-006	0.00000E+000	1.99006E-001	0.00000E+000	9	...........	1467.51
	302	10.1	1.97982E-001	-3.73021E-006	0.00000E+000	1.97994E-001	0.00000E+000	9	...........	1467.52
	303	10.1333	1.96985E-001	-3.77819E-006	0.00000E+000	1.96994E-001	0.00000E+000	9	...........	1467.52
	304	10.1667	1.95987E-001	-3.84228E-006	0.00000E+000	1.95995E-001	0.00000E+000	9	...........	1467.52
	305	10.2	1.94996E-001	-3.89077E-006	0.00000E+000	1.94995E-001	0.00000E+000	9	...........	1467.52
	306	10.2333	1.94007E-001	-3.94691E-006	0.00000E+000	1.93995E-001	0.00000E+000	9	...........	1467.52
	307	10.2667	1.93008E-001	-4.01220E-006	0.00000E+000	1.92996E-001	0.00000E+000	9	...........	1467.52
	308	10.3	1.92015E-001	-4.06818E-006	0.00000E+000	1.91996E-001	0.00000E+000	9	...........	1467.52
	309	10.3333	1.90980E-001	-4.12136E-006	0.00000E+000	1.90996E-001	0.00000E+000	9	...........	1467.52
	310	10.3667	1.89990E-001	-4.19109E-006	0.00000E+000	1.89997E-001	0.00000E+000	9	...........	1467.52
	311	10.4	1.88987E-001	-4.24917E-006	0.00000E+000	1.88997E-001	0.00000E+000	9	...........	1467.52
	312	10.4333	1.87992E-001	-4.30325E-006	0.00000E+000	1.87997E-001	0.00000E+000	9	...........	1467.52
	313	10.4667	1.86999E-001	-4.37082E-006	0.00000E+000	1.86998E-001	0.00000E+000	9	...........	1467.52
	314	10.5	1.86001E-001	-4.42827E-006	0.00000E+000	1.85998E-001	0.00000E+000	9	...........	1467.52
	315	10.5333	1.84993E-001	-4.47876E-006	0.00000E+000	1.84998E-001	0.00000E+000	9	...........	1467.52
	316	10.5667	1.83989E-001	-4.55057E-006	0.00000E+000	1.83999E-001	0.00000E+000	9	...........	1467.52
	317	10.6	1.82991E-001	-4.60600E-006	0.00000E+000	1.82999E-001	0.00000E+000	9	...........	1467.52
	318	10.6333	1.82001E-001	-4.66225E-006	0.00000E+000	1.81999E-001	0.00000E+000	9	...........	1467.52
	319	10.6667	1.81005E-001	-4.73223E-006	0.00000E+000	1.81000E-001	0.00000E+000	9	...........	1467.52
	320	10.7	1.79995E-001	-4.79490E-006	0.00000E+000	1.80000E-001	0.00000E+000	9	...........	1467.52
	321	10.7333	1.78981E-001	-4.84641E-006	0.00000E+000	1.79000E-001	0.00000E+000	9	...........	1467.52
	322	10.7667	1.77982E-001	-4.91573E-006	0.00000E+000	1.78001E-001	0.00000E+000	9	...........	1467.52
	323	10.8	1.76983E-001	-4.97377E-006	0.00000E+000	1.77001E-001	0.00000E+000	9	...........	1467.52
	324	10.8333	1.75999E-001	-5.02396E-006	0.00000E+000	1.76002E-001	0.00000E+000	9	...........	1467.52
	325	10.8667	1.74989E-001	-5.09710E-006	0.00000E+000	1.75002E-001	0.00000E+000	9	...........	1467.52
	326	10.9	1.73993E-001	-5.16004E-006	0.00000E+000	1.74002E-001	0.00000E+000	9	...........	1467.52
	327	10.9333	1.72996E-001	-5.21415E-006	0.00000E+000	1.73003E-001	0.00000E+000	9	...........	1467.52
	328	10.9667	1.71989E-001	-5.28418E-006	0.00000E+000	1.72003E-001	0.00000E+000	9	...........	1467.52
	329	11	1.70991E-001	-5.34718E-006	0.00000E+000	1.71003E-001	0.00000E+000	9	...........	1467.52
	330	11.0333	1.70007E-001	-5.40360E-006	0.00000E+000	1.70004E-001	0.00000E+000	9	...........	1467.52
	331	11.0667	1.69003E-001	-5.47235E-006	0.00000E+000	1.69004E-001	0.00000E+000	9	...........	1467.52
	332	11.1	1.68006E-001	-5.53736E-006	0.00000E+000	1.68004E-001	0.00000E+000	9	...........	1467.52
	333	11.1333	1.67004E-001	-5.59234E-006	0.00000E+000	1.67005E-001	0.00000E+000	9	...........	1467.52
	334	11.1667	1.65973E-001	-5.66295E-006	0.00000E+000	1.66005E-001	0.00000E+000	9	...........	1467.52
	335	11.2	1.64974E-001	-5.72784E-006	0.00000E+000	1.65005E-001	0.00000E+000	9	...........	1467.52
	336	11.2333	1.63985E-001	-5.78018E-006	0.00000E+000	1.64006E-001	0.00000E+000	9	...........	1467.52
	337	11.2667	1.62984E-001	-5.85128E-006	0.00000E+000	1.63006E-001	0.00000E+000	9	...........	1467.52
	338	11.3	1.61980E-001	-5.92465E-006	0.00000E+000	1.61994E-001	0.00000E+000	9	...........	1467.52
	339	11.3333	1.60985E-001	-5.97506E-006	0.00000E+000	1.60994E-001	0.00000E+000	9	...........	1467.52
	340	11.3667	1.59987E-001	-6.04332E-006	0.00000E+000	1.59995E-001	0.00000E+000	9	...........	1467.52
	341	11.4	1.58978E-001	-6.10651E-006	0.00000E+000	1.58995E-001	0.00000E+000	9	...........	1467.52
	342	11.4333	1.57998E-001	-6.16209E-006	0.00000E+000	1.57995E-001	0.00000E+000	9	...........	1467.52
	343	11.4667	1.57004E-001	-6.23156E-006	0.00000E+000	1.56996E-001	0.00000E+000	9	...........	1467.52
	344	11.5	1.55999E-001	-6.29865E-006	0.00000E+000	1.55996E-001	0.00000E+000	9	...........	1467.52
	345	11.5333	1.54998E-001	-6.35151E-006	0.00000E+000	1.54996E-001	0.00000E+000	9	...........	1467.52
	346	11.5667	1.53985E-001	-6.42376E-006	0.00000E+000	1.53997E-001	0.00000E+000	9	...........	1467.52
	347	11.6	1.52978E-001	-6.49052E-006	0.00000E+000	1.52997E-001	0.00000E+000	9	...........	1467.52
	348	11.6333	1.51984E-001	-6.54721E-006	0.00000E+000	1.51997E-001	0.00000E+000	9	...........	1467.52
	349	11.6667	1.50989E-001	-6.61205E-006	0.00000E+000	1.50998E-001	0.00000E+000	9	...........	1467.52
	350	11.7	1.49991E-001	-6.67961E-006	0.00000E+000	1.49998E-001	0.00000E+000	9	...........	1467.52
	351	11.7333	1.49000E-001	-6.73481E-006	0.00000E+000	1.48998E-001	0.00000E+000	9	...........	1467.52
	352	11.7667	1.48003E-001	-6.80805E-006	0.00000E+000	1.47999E-001	0.00000E+000	9	...........	1467.52
	353	11.8	1.47000E-001	-6.87582E-006	0.00000E+000	1.46999E-001	0.00000E+000	9	...........	1467.52
	354	11.8333	1.45993E-001	-6.92849E-006	0.00000E+000	1.46000E-001	0.00000E+000	9	...........	1467.52
	355	11.8667	1.44994E-001	-7.00268E-006	0.00000E+000	1.45000E-001	0.00000E+000	9	...........	1467.52
	356	11.9	1.43993E-001	-7.07274E-006	0.00000E+000	1.44000E-001	0.00000E+000	9	...........	1467.52
	357	11.9333	1.42999E-001	-7.13089E-006	0.00000E+000	1.43001E-001	0.00000E+000	9	...........	1467.52
	358	11.9667	1.42002E-001	-7.20027E-006	0.00000E+000	1.42001E-001	0.00000E+000	9	...........	1467.52
	359	12	1.41014E-001	-7.27076E-006	0.00000E+000	1.41001E-001	0.00000E+000	9	...........	1467.52
	360	12.0333	1.39994E-001	-7.32552E-006	0.00000E+000	1.40002E-001	0.00000E+000	9	...........	1467.52
	361	12.0667	1.38996E-001	-7.39863E-006	0.00000E+000	1.39002E-001	0.00000E+000	9	...........	1467.68
	362	12.1	1.37995E-001	-7.47355E-006	0.00000E+000	1.38002E-001	0.00000E+000	9	...........	1467.70
	363	12.1333	1.36993E-001	-7.52733E-006	0.00000E+000	1.37003E-001	0.00000E+000	9	...........	1467.70
	364	12.1667	1.35998E-001	-7.60513E-006	0.00000E+000	1.36003E-001	0.00000E+000	9	...........	1467.70
	365	12.2	1.34995E-001	-7.68179E-006	0.00000E+000	1.35003E-001	0.00000E+000	9	...........	1467.70
	366	12.2333	1.33992E-001	-7.73807E-006	0.00000E+000	1.34004E-001	0.00000E+000	9	...........	1467.70
	367	12.2667	1.33002E-001	-7.82047E-006	0.00000E+000	1.33004E-001	0.00000E+000	9	...........	1467.70
	368	12.3	1.32007E-001	-7.88029E-006	0.00000E+000	1.32004E-001	0.00000E+000	9	...........	1467.70
	369	12.3333	1.31009E-001	-7.94228E-006	0.00000E+000	1.31005E-001	0.00000E+000	9	...........	1467.70
	370	12.3667	1.30005E-001	-8.01933E-006	0.00000E+000	1.30005E-001	0.00000E+000	9	...........	1467.70
	371	12.4	1.29011E-001	-8.08640E-006	0.00000E+000	1.29005E-001	0.00000E+000	9	...........	1467.70
	372	12.4333	1.28012E-001	-8.15222E-006	0.00000E+000	1.28006E-001	0.00000E+000	9	...........	1467.70
	373	12.4667	1.26997E-001	-8.23587E-006	0.00000E+000	1.27006E-001	0.00000E+000	9	...........	1467.70
	374	12.5	1.25985E-001	-8.31853E-006	0.00000E+000	1.25994E-001	0.00000E+000	9	...........	1467.70
	375	12.5333	1.24992E-001	-8.38043E-006	0.00000E+000	1.24994E-001	0.00000E+000	9	...........	1467.70
	376	12.5667	1.23995E-001	-8.46130E-006	0.00000E+000	1.23995E-001	0.00000E+000	9	...........	1467.70
	377	12.6	1.23000E-001	-8.54324E-006	0.00000E+000	1.22995E-001	0.00000E+000	9	...........	1467.70
	378	12.6333	1.22003E-001	-8.60854E-006	0.00000E+000	1.21995E-001	0.00000E+000	9	...........	1467.70
	379	12.6667	1.20990E-001	-8.69478E-006	0.00000E+000	1.20996E-001	0.00000E+000	9	...........	1467.70
[...]
	1005	33.5333	2.95002E-001	7.41601E-007	0.00000E+000	2.94998E-001	0.00000E+000	9	...........	1467.70
	1006	33.5667	2.93971E-001	6.63835E-007	0.00000E+000	2.93998E-001	0.00000E+000	9	...........	1467.70
	1007	33.6	2.92981E-001	5.92041E-007	0.00000E+000	2.92998E-001	0.00000E+000	9	...........	1467.70
	1008	33.6333	2.91986E-001	5.41265E-007	0.00000E+000	2.91999E-001	0.00000E+000	9	...........	1467.70
	1009	33.6667	2.90983E-001	4.76260E-007	0.00000E+000	2.90999E-001	0.00000E+000	9	...........	1467.70
	1010	33.7	2.89991E-001	4.13640E-007	0.00000E+000	2.89999E-001	0.00000E+000	9	...........	1467.70
	1011	33.7333	2.88999E-001	3.63031E-007	0.00000E+000	2.89000E-001	0.00000E+000	9	...........	1467.70
	1012	33.7667	2.87989E-001	3.00044E-007	0.00000E+000	2.88000E-001	0.00000E+000	9	...........	1467.70
	1013	33.8	2.86983E-001	2.47533E-007	0.00000E+000	2.87000E-001	0.00000E+000	9	...........	1467.70
	1014	33.8333	2.85989E-001	2.03629E-007	0.00000E+000	2.86001E-001	0.00000E+000	9	...........	1467.70
	1015	33.8667	2.84991E-001	1.51702E-007	0.00000E+000	2.85001E-001	0.00000E+000	9	...........	1467.70
	1016	33.9	2.83996E-001	9.82570E-008	0.00000E+000	2.84001E-001	0.00000E+000	9	...........	1467.70
	1017	33.9333	2.82984E-001	5.95242E-008	0.00000E+000	2.83002E-001	0.00000E+000	9	...........	1467.70
	1018	33.9667	2.81977E-001	6.27920E-009	0.00000E+000	2.82002E-001	0.00000E+000	9	...........	1467.70
	1019	34	2.80977E-001	-4.25955E-008	0.00000E+000	2.81002E-001	0.00000E+000	9	...........	1467.70
	1020	34.0333	2.79979E-001	-8.21122E-008	0.00000E+000	2.80003E-001	0.00000E+000	9	...........	1467.64
	1021	34.0667	2.78976E-001	-1.36742E-007	0.00000E+000	2.79003E-001	0.00000E+000	9	...........	1467.43
	1022	34.1	2.77980E-001	-1.81763E-007	0.00000E+000	2.78003E-001	0.00000E+000	9	...........	1467.43
	1023	34.1333	2.76979E-001	-2.18361E-007	0.00000E+000	2.77004E-001	0.00000E+000	9	...........	1467.43
	1024	34.1667	2.75985E-001	-2.63733E-007	0.00000E+000	2.76004E-001	0.00000E+000	9	...........	1467.43
	1025	34.2	2.74981E-001	-3.10589E-007	0.00000E+000	2.75004E-001	0.00000E+000	9	...........	1467.43
	1026	34.2333	2.73980E-001	-3.47854E-007	0.00000E+000	2.74005E-001	0.00000E+000	9	...........	1467.43
	1027	34.2667	2.72986E-001	-3.91541E-007	0.00000E+000	2.73005E-001	0.00000E+000	9	...........	1467.43
	1028	34.3	2.71992E-001	-4.39882E-007	0.00000E+000	2.72006E-001	0.00000E+000	9	...........	1467.43
	1029	34.3333	2.71007E-001	-4.71475E-007	0.00000E+000	2.71006E-001	0.00000E+000	9	...........	1467.43
	1030	34.3667	2.69998E-001	-5.24420E-007	0.00000E+000	2.69994E-001	0.00000E+000	9	...........	1467.43
	1031	34.4	2.69005E-001	-5.64137E-007	0.00000E+000	2.68994E-001	0.00000E+000	9	...........	1467.43
	1032	34.4333	2.67972E-001	-5.91560E-007	0.00000E+000	2.67994E-001	0.00000E+000	9	...........	1467.43
	1033	34.4667	2.66966E-001	-6.35514E-007	0.00000E+000	2.66995E-001	0.00000E+000	9	...........	1467.43
	1034	34.5	2.65979E-001	-6.79467E-007	0.00000E+000	2.65995E-001	0.00000E+000	9	...........	1467.43
	1035	34.5333	2.64978E-001	-7.11278E-007	0.00000E+000	2.64995E-001	0.00000E+000	9	...........	1467.43
	1036	34.5667	2.63981E-001	-7.52629E-007	0.00000E+000	2.63996E-001	0.00000E+000	9	...........	1467.43
	1037	34.6	2.62986E-001	-7.97351E-007	0.00000E+000	2.62996E-001	0.00000E+000	9	...........	1467.43
	1038	34.6333	2.61976E-001	-8.28076E-007	0.00000E+000	2.61997E-001	0.00000E+000	9	...........	1467.43
	1039	34.6667	2.60980E-001	-8.70079E-007	0.00000E+000	2.60997E-001	0.00000E+000	9	...........	1467.43
	1040	34.7	2.59982E-001	-9.13148E-007	0.00000E+000	2.59997E-001	0.00000E+000	9	...........	1467.43
	1041	34.7333	2.58985E-001	-9.44041E-007	0.00000E+000	2.58998E-001	0.00000E+000	9	...........	1467.43
	1042	34.7667	2.57988E-001	-9.83441E-007	0.00000E+000	2.57998E-001	0.00000E+000	9	...........	1467.43
	1043	34.8	2.56991E-001	-1.02689E-006	0.00000E+000	2.56998E-001	0.00000E+000	9	...........	1467.43
	1044	34.8333	2.55976E-001	-1.05767E-006	0.00000E+000	2.55999E-001	0.00000E+000	9	...........	1467.43
	1045	34.8667	2.54964E-001	-1.10027E-006	0.00000E+000	2.54999E-001	0.00000E+000	9	...........	1467.43
	1046	34.9	2.53963E-001	-1.14544E-006	0.00000E+000	2.53999E-001	0.00000E+000	9	...........	1467.43
	1047	34.9333	2.52971E-001	-1.17425E-006	0.00000E+000	2.53000E-001	0.00000E+000	9	...........	1467.43
	1048	34.9667	2.51982E-001	-1.21505E-006	0.00000E+000	2.52000E-001	0.00000E+000	9	...........	1467.43
	1049	35	2.50989E-001	-1.25742E-006	0.00000E+000	2.51000E-001	0.00000E+000	9	...........	1467.43
	1050	35.0333	2.49993E-001	-1.28716E-006	0.00000E+000	2.50001E-001	0.00000E+000	9	...........	1467.43
	1051	35.0667	2.48985E-001	-1.32405E-006	0.00000E+000	2.49001E-001	0.00000E+000	9	...........	1467.43
	1052	35.1	2.47987E-001	-1.37200E-006	0.00000E+000	2.48001E-001	0.00000E+000	9	...........	1467.43
	1053	35.1333	2.46991E-001	-1.39803E-006	0.00000E+000	2.47002E-001	0.00000E+000	9	...........	1467.43
	1054	35.1667	2.45995E-001	-1.43719E-006	0.00000E+000	2.46002E-001	0.00000E+000	9	...........	1467.43
	1055	35.2	2.45002E-001	-1.48263E-006	0.00000E+000	2.45002E-001	0.00000E+000	9	...........	1467.43
	1056	35.2333	2.44010E-001	-1.51771E-006	0.00000E+000	2.44003E-001	0.00000E+000	9	...........	1467.43
	1057	35.2667	2.42989E-001	-1.55716E-006	0.00000E+000	2.43003E-001	0.00000E+000	9	...........	1467.43
	1058	35.3	2.41979E-001	-1.60453E-006	0.00000E+000	2.42004E-001	0.00000E+000	9	...........	1467.43
	1059	35.3333	2.40973E-001	-1.63940E-006	0.00000E+000	2.41004E-001	0.00000E+000	9	...........	1467.43
	1060	35.3667	2.39982E-001	-1.67903E-006	0.00000E+000	2.40004E-001	0.00000E+000	9	...........	1467.43
	1061	35.4	2.38978E-001	-1.72797E-006	0.00000E+000	2.39005E-001	0.00000E+000	9	...........	1467.43
	1062	35.4333	2.37980E-001	-1.75896E-006	0.00000E+000	2.38005E-001	0.00000E+000	9	...........	1467.43
	1063	35.4667	2.36987E-001	-1.79761E-006	0.00000E+000	2.37005E-001	0.00000E+000	9	...........	1467.43
	1064	35.5	2.35987E-001	-1.84799E-006	0.00000E+000	2.36006E-001	0.00000E+000	9	...........	1467.43
	1065	35.5333	2.34998E-001	-1.88128E-006	0.00000E+000	2.35006E-001	0.00000E+000	9	...........	1467.43
	1066	35.5667	2.34000E-001	-1.92847E-006	0.00000E+000	2.33994E-001	0.00000E+000	9	...........	1467.43
	1067	35.6	2.32993E-001	-1.97688E-006	0.00000E+000	2.32994E-001	0.00000E+000	9	...........	1467.43
	1068	35.6333	2.31997E-001	-2.00993E-006	0.00000E+000	2.31994E-001	0.00000E+000	9	...........	1467.43
	1069	35.6667	2.30991E-001	-2.04939E-006	0.00000E+000	2.30995E-001	0.00000E+000	9	...........	1467.43
	1070	35.7	2.29978E-001	-2.09997E-006	0.00000E+000	2.29995E-001	0.00000E+000	9	...........	1467.43
	1071	35.7333	2.28978E-001	-2.13703E-006	0.00000E+000	2.28996E-001	0.00000E+000	9	...........	1467.43
	1072	35.7667	2.27982E-001	-2.18077E-006	0.00000E+000	2.27996E-001	0.00000E+000	9	...........	1467.43
	1073	35.8	2.26976E-001	-2.23445E-006	0.00000E+000	2.26996E-001	0.00000E+000	9	...........	1467.43
	1074	35.8333	2.25981E-001	-2.27051E-006	0.00000E+000	2.25997E-001	0.00000E+000	9	...........	1467.43
	1075	35.8667	2.24983E-001	-2.31347E-006	0.00000E+000	2.24997E-001	0.00000E+000	9	...........	1467.43
	1076	35.9	2.24002E-001	-2.37075E-006	0.00000E+000	2.23997E-001	0.00000E+000	9	...........	1467.43
	1077	35.9333	2.22991E-001	-2.40811E-006	0.00000E+000	2.22998E-001	0.00000E+000	9	...........	1467.43
	1078	35.9667	2.21993E-001	-2.45395E-006	0.00000E+000	2.21998E-001	0.00000E+000	9	...........	1467.43
	1079	36	2.20995E-001	-2.51008E-006	0.00000E+000	2.20998E-001	0.00000E+000	9	...........	1467.43
	1080	36.0333	2.19989E-001	-2.54945E-006	0.00000E+000	2.19999E-001	0.00000E+000	9	...........	1467.50
	1081	36.0667	2.18993E-001	-2.59565E-006	0.00000E+000	2.18999E-001	0.00000E+000	9	...........	1467.70
	1082	36.1	2.18005E-001	-2.65077E-006	0.00000E+000	2.17999E-001	0.00000E+000	9	...........	1467.70
	1083	36.1333	2.16973E-001	-2.69375E-006	0.00000E+000	2.17000E-001	0.00000E+000	9	...........	1467.70
	1084	36.1667	2.15976E-001	-2.73244E-006	0.00000E+000	2.16000E-001	0.00000E+000	9	...........	1467.70
	1085	36.2	2.14974E-001	-2.79215E-006	0.00000E+000	2.15000E-001	0.00000E+000	9	...........	1467.70
	1086	36.2333	2.13960E-001	-2.83758E-006	0.00000E+000	2.14001E-001	0.00000E+000	9	...........	1467.70
	1087	36.2667	2.12970E-001	-2.88105E-006	0.00000E+000	2.13001E-001	0.00000E+000	9	...........	1467.70
	1088	36.3	2.11982E-001	-2.94560E-006	0.00000E+000	2.12001E-001	0.00000E+000	9	...........	1467.70
	1089	36.3333	2.10984E-001	-2.99124E-006	0.00000E+000	2.11002E-001	0.00000E+000	9	...........	1467.70
	1090	36.3667	2.09988E-001	-3.03566E-006	0.00000E+000	2.10002E-001	0.00000E+000	9	...........	1467.70
	1091	36.4	2.08994E-001	-3.09329E-006	0.00000E+000	2.09003E-001	0.00000E+000	9	...........	1467.70
	1092	36.4333	2.07997E-001	-3.13670E-006	0.00000E+000	2.08003E-001	0.00000E+000	9	...........	1467.70
	1093	36.4667	2.06993E-001	-3.18534E-006	0.00000E+000	2.07003E-001	0.00000E+000	9	...........	1467.70
	1094	36.5	2.06005E-001	-3.24897E-006	0.00000E+000	2.06004E-001	0.00000E+000	9	...........	1467.70
	1095	36.5333	2.05006E-001	-3.29713E-006	0.00000E+000	2.05004E-001	0.00000E+000	9	...........	1467.70
	1096	36.5667	2.03990E-001	-3.34352E-006	0.00000E+000	2.04004E-001	0.00000E+000	9	...........	1467.70
	1097	36.6	2.02993E-001	-3.40654E-006	0.00000E+000	2.03005E-001	0.00000E+000	9	...........	1467.70
	1098	36.6333	2.01995E-001	-3.45438E-006	0.00000E+000	2.02005E-001	0.00000E+000	9	...........	1467.70
	1099	36.6667	2.00992E-001	-3.50159E-006	0.00000E+000	2.01005E-001	0.00000E+000	9	...........	1467.70
	1100	36.7	2.00000E-001	-3.56701E-006	0.00000E+000	2.00006E-001	0.00000E+000	9	...........	1467.70
	1101	36.7333	1.99000E-001	-3.61263E-006	0.00000E+000	1.99006E-001	0.00000E+000	9	...........	1467.70
	1102	36.7667	1.97977E-001	-3.67302E-006	0.00000E+000	1.97994E-001	0.00000E+000	9	...........	1467.70
	1103	36.8	1.96982E-001	-3.73370E-006	0.00000E+000	1.96994E-001	0.00000E+000	9	...........	1467.70
	1104	36.8333	1.95990E-001	-3.78294E-006	0.00000E+000	1.95995E-001	0.00000E+000	9	...........	1467.70
	1105	36.8667	1.94990E-001	-3.83372E-006	0.00000E+000	1.94995E-001	0.00000E+000	9	...........	1467.70
	1106	36.9	1.93998E-001	-3.89554E-006	0.00000E+000	1.93995E-001	0.00000E+000	9	...........	1467.70
	1107	36.9333	1.93009E-001	-3.94863E-006	0.00000E+000	1.92996E-001	0.00000E+000	9	...........	1467.70
	1108	36.9667	1.92014E-001	-4.00318E-006	0.00000E+000	1.91996E-001	0.00000E+000	9	...........	1467.70
	1109	37	1.90987E-001	-4.07215E-006	0.00000E+000	1.90996E-001	0.00000E+000	9	...........	1467.70
	1110	37.0333	1.89990E-001	-4.12900E-006	0.00000E+000	1.89997E-001	0.00000E+000	9	...........	1467.68
	1111	37.0667	1.88990E-001	-4.17811E-006	0.00000E+000	1.88997E-001	0.00000E+000	9	...........	1467.61
	1112	37.1	1.88001E-001	-4.24982E-006	0.00000E+000	1.87997E-001	0.00000E+000	9	...........	1467.61
	1113	37.1333	1.86999E-001	-4.30337E-006	0.00000E+000	1.86998E-001	0.00000E+000	9	...........	1467.61
	1114	37.1667	1.85996E-001	-4.35461E-006	0.00000E+000	1.85998E-001	0.00000E+000	9	...........	1467.61
	1115	37.2	1.84987E-001	-4.42574E-006	0.00000E+000	1.84998E-001	0.00000E+000	9	...........	1467.61
	1116	37.2333	1.83986E-001	-4.48262E-006	0.00000E+000	1.83999E-001	0.00000E+000	9	...........	1467.61
	1117	37.2667	1.82987E-001	-4.53631E-006	0.00000E+000	1.82999E-001	0.00000E+000	9	...........	1467.61
	1118	37.3	1.81995E-001	-4.60751E-006	0.00000E+000	1.81999E-001	0.00000E+000	9	...........	1467.61
	1119	37.3333	1.80993E-001	-4.65872E-006	0.00000E+000	1.81000E-001	0.00000E+000	9	...........	1467.61
	1120	37.3667	1.79985E-001	-4.71296E-006	0.00000E+000	1.80000E-001	0.00000E+000	9	...........	1467.61
	1121	37.4	1.78972E-001	-4.78329E-006	0.00000E+000	1.79000E-001	0.00000E+000	9	...........	1467.61
	1122	37.4333	1.77979E-001	-4.84289E-006	0.00000E+000	1.78001E-001	0.00000E+000	9	...........	1467.61
	1123	37.4667	1.76981E-001	-4.89562E-006	0.00000E+000	1.77001E-001	0.00000E+000	9	...........	1467.61
	1124	37.5	1.76002E-001	-4.96369E-006	0.00000E+000	1.76002E-001	0.00000E+000	9	...........	1467.61
	1125	37.5333	1.75001E-001	-5.02399E-006	0.00000E+000	1.75002E-001	0.00000E+000	9	...........	1467.61
	1126	37.5667	1.74001E-001	-5.07902E-006	0.00000E+000	1.74002E-001	0.00000E+000	9	...........	1467.61
	1127	37.6	1.73005E-001	-5.15323E-006	0.00000E+000	1.73003E-001	0.00000E+000	9	...........	1467.61
	1128	37.6333	1.72000E-001	-5.21035E-006	0.00000E+000	1.72003E-001	0.00000E+000	9	...........	1467.61
	1129	37.6667	1.71000E-001	-5.26456E-006	0.00000E+000	1.71003E-001	0.00000E+000	9	...........	1467.61
	1130	37.7	1.70014E-001	-5.33936E-006	0.00000E+000	1.70004E-001	0.00000E+000	9	...........	1467.61
	1131	37.7333	1.69003E-001	-5.40033E-006	0.00000E+000	1.69004E-001	0.00000E+000	9	...........	1467.61
	1132	37.7667	1.68005E-001	-5.45311E-006	0.00000E+000	1.68004E-001	0.00000E+000	9	...........	1467.61
	1133	37.8	1.67008E-001	-5.52176E-006	0.00000E+000	1.67005E-001	0.00000E+000	9	...........	1467.61
	1134	37.8333	1.65980E-001	-5.58570E-006	0.00000E+000	1.66005E-001	0.00000E+000	9	...........	1467.61
	1135	37.8667	1.64991E-001	-5.64061E-006	0.00000E+000	1.65005E-001	0.00000E+000	9	...........	1467.61
	1136	37.9	1.64006E-001	-5.71616E-006	0.00000E+000	1.64006E-001	0.00000E+000	9	...........	1467.61
	1137	37.9333	1.63003E-001	-5.78045E-006	0.00000E+000	1.63006E-001	0.00000E+000	9	...........	1467.61
	1138	37.9667	1.61991E-001	-5.84155E-006	0.00000E+000	1.61994E-001	0.00000E+000	9	...........	1467.61
	1139	38	1.60991E-001	-5.91027E-006	0.00000E+000	1.60994E-001	0.00000E+000	9	...........	1467.61
	1140	38.0333	1.59994E-001	-5.97263E-006	0.00000E+000	1.59995E-001	0.00000E+000	9	...........	1467.56
	1141	38.0667	1.58988E-001	-6.02959E-006	0.00000E+000	1.58995E-001	0.00000E+000	9	...........	1467.43
	1142	38.1	1.58001E-001	-6.10110E-006	0.00000E+000	1.57995E-001	0.00000E+000	9	...........	1467.43
	1143	38.1333	1.57005E-001	-6.16180E-006	0.00000E+000	1.56996E-001	0.00000E+000	9	...........	1467.43
	1144	38.1667	1.55997E-001	-6.21663E-006	0.00000E+000	1.55996E-001	0.00000E+000	9	...........	1467.43
	1145	38.2	1.54996E-001	-6.28763E-006	0.00000E+000	1.54996E-001	0.00000E+000	9	...........	1467.43
	1146	38.2333	1.53985E-001	-6.34780E-006	0.00000E+000	1.53997E-001	0.00000E+000	9	...........	1467.43
	1147	38.2667	1.52972E-001	-6.40566E-006	0.00000E+000	1.52997E-001	0.00000E+000	9	...........	1467.43
	1148	38.3	1.51980E-001	-6.47617E-006	0.00000E+000	1.51997E-001	0.00000E+000	9	...........	1467.43
	1149	38.3333	1.50979E-001	-6.53922E-006	0.00000E+000	1.50998E-001	0.00000E+000	9	...........	1467.43
	1150	38.3667	1.49979E-001	-6.59799E-006	0.00000E+000	1.49998E-001	0.00000E+000	9	...........	1467.43
	1151	38.4	1.48984E-001	-6.67008E-006	0.00000E+000	1.48998E-001	0.00000E+000	9	...........	1467.43
	1152	38.4333	1.47999E-001	-6.73205E-006	0.00000E+000	1.47999E-001	0.00000E+000	9	...........	1467.43
	1153	38.4667	1.47006E-001	-6.78800E-006	0.00000E+000	1.46999E-001	0.00000E+000	9	...........	1467.43
	1154	38.5	1.45994E-001	-6.86253E-006	0.00000E+000	1.46000E-001	0.00000E+000	9	...........	1467.43
	1155	38.5333	1.44990E-001	-6.92999E-006	0.00000E+000	1.45000E-001	0.00000E+000	9	...........	1467.43
	1156	38.5667	1.43993E-001	-6.98959E-006	0.00000E+000	1.44000E-001	0.00000E+000	9	...........	1467.43
	1157	38.6	1.43004E-001	-7.06303E-006	0.00000E+000	1.43001E-001	0.00000E+000	9	...........	1467.43
	1158	38.6333	1.42011E-001	-7.13249E-006	0.00000E+000	1.42001E-001	0.00000E+000	9	...........	1467.43
	1159	38.6667	1.41012E-001	-7.19283E-006	0.00000E+000	1.41001E-001	0.00000E+000	9	...........	1467.43
	1160	38.7	1.39988E-001	-7.26387E-006	0.00000E+000	1.40002E-001	0.00000E+000	9	...........	1467.43
	1161	38.7333	1.38999E-001	-7.33164E-006	0.00000E+000	1.39002E-001	0.00000E+000	9	...........	1467.43
	1162	38.7667	1.37999E-001	-7.39116E-006	0.00000E+000	1.38002E-001	0.00000E+000	9	...........	1467.43
	1163	38.8	1.36993E-001	-7.46713E-006	0.00000E+000	1.37003E-001	0.00000E+000	9	...........	1467.43
	1164	38.8333	1.35992E-001	-7.54059E-006	0.00000E+000	1.36003E-001	0.00000E+000	9	...........	1467.43
	1165	38.8667	1.34995E-001	-7.59827E-006	0.00000E+000	1.35003E-001	0.00000E+000	9	...........	1467.43
	1166	38.9	1.33993E-001	-7.67667E-006	0.00000E+000	1.34004E-001	0.00000E+000	9	...........	1467.43
	1167	38.9333	1.33001E-001	-7.74661E-006	0.00000E+000	1.33004E-001	0.00000E+000	9	...........	1467.43
	1168	38.9667	1.32010E-001	-7.80306E-006	0.00000E+000	1.32004E-001	0.00000E+000	9	...........	1467.43
	1169	39	1.31008E-001	-7.88239E-006	0.00000E+000	1.31005E-001	0.00000E+000	9	...........	1467.43
	1170	39.0333	1.30000E-001	-7.96241E-006	0.00000E+000	1.30005E-001	0.00000E+000	9	...........	1467.46
	1171	39.0667	1.29004E-001	-8.02201E-006	0.00000E+000	1.29005E-001	0.00000E+000	9	...........	1467.52
	1172	39.1	1.28007E-001	-8.10456E-006	0.00000E+000	1.28006E-001	0.00000E+000	9	...........	1467.52
	1173	39.1333	1.26991E-001	-8.17582E-006	0.00000E+000	1.27006E-001	0.00000E+000	9	...........	1467.52
	1174	39.1667	1.25979E-001	-8.24957E-006	0.00000E+000	1.25994E-001	0.00000E+000	9	...........	1467.52
	1175	39.2	1.24978E-001	-8.32422E-006	0.00000E+000	1.24994E-001	0.00000E+000	9	...........	1467.52
	1176	39.2333	1.23977E-001	-8.40192E-006	0.00000E+000	1.23995E-001	0.00000E+000	9	...........	1467.52
	1177	39.2667	1.22979E-001	-8.46977E-006	0.00000E+000	1.22995E-001	0.00000E+000	9	...........	1467.52
	1178	39.3	1.21990E-001	-8.54744E-006	0.00000E+000	1.21995E-001	0.00000E+000	9	...........	1467.52
	1179	39.3333	1.20988E-001	-8.63246E-006	0.00000E+000	1.20996E-001	0.00000E+000	9	...........	1467.52
	1180	39.3667	1.19998E-001	-8.70179E-006	0.00000E+000	1.19996E-001	0.00000E+000	9	...........	1467.52
	1181	39.4	1.19001E-001	-8.79098E-006	0.00000E+000	1.18996E-001	0.00000E+000	9	...........	1467.52
	1182	39.4333	1.17998E-001	-8.87140E-006	0.00000E+000	1.17997E-001	0.00000E+000	9	...........	1467.52
	1183	39.4667	1.17001E-001	-8.93999E-006	0.00000E+000	1.16997E-001	0.00000E+000	9	...........	1467.52
	1184	39.5	1.16010E-001	-9.02491E-006	0.00000E+000	1.15997E-001	0.00000E+000	9	...........	1467.52
	1185	39.5333	1.15000E-001	-9.10551E-006	0.00000E+000	1.14998E-001	0.00000E+000	9	...........	1467.52
	1186	39.5667	1.13980E-001	-9.17223E-006	0.00000E+000	1.13998E-001	0.00000E+000	9	...........	1467.52
	1187	39.6	1.12988E-001	-9.25590E-006	0.00000E+000	1.12999E-001	0.00000E+000	9	...........	1467.52
	1188	39.6333	1.11985E-001	-9.33866E-006	0.00000E+000	1.11999E-001	0.00000E+000	9	...........	1467.52
	1189	39.6667	1.10993E-001	-9.40675E-006	0.00000E+000	1.10999E-001	0.00000E+000	9	...........	1467.52
	1190	39.7	1.09997E-001	-9.49384E-006	0.00000E+000	1.10000E-001	0.00000E+000	9	...........	1467.52
	1191	39.7333	1.08995E-001	-9.57674E-006	0.00000E+000	1.09000E-001	0.00000E+000	9	...........	1467.52
	1192	39.7667	1.07992E-001	-9.64950E-006	0.00000E+000	1.08000E-001	0.00000E+000	9	...........	1467.52
	1193	39.8	1.06990E-001	-9.73755E-006	0.00000E+000	1.07001E-001	0.00000E+000	9	...........	1467.52
	1194	39.8333	1.05994E-001	-9.82489E-006	0.00000E+000	1.06001E-001	0.00000E+000	9	...........	1467.52
	1195	39.8667	1.05002E-001	-9.89753E-006	0.00000E+000	1.05001E-001	0.00000E+000	9	...........	1467.52
	1196	39.9	1.04013E-001	-9.98581E-006	0.00000E+000	1.04002E-001	0.00000E+000	9	...........	1467.52
	1197	39.9333	1.03007E-001	-1.00730E-005	0.00000E+000	1.03002E-001	0.00000E+000	9	...........	1467.52
	1198	39.9667	1.01993E-001	-1.01440E-005	0.00000E+000	1.02002E-001	0.00000E+000	9	...........	1467.52
	1199	40	1.01004E-001	-1.02355E-005	0.00000E+000	1.01003E-001	0.00000E+000	9	...........	1467.52
	1200	40.0333	1.00010E-001	-1.03198E-005	0.00000E+000	1.00003E-001	0.00000E+000	9	...........	1467.61
CURVE4	TABLE
	Pt	T	Vf	Im	Vu	Sig	Ach	IERange	Over	Temp
	#	s	V vs. Ref.	A	V	V	V	#	bits	deg C
	1201	40.0667	1.00006E-001	-9.80158E-006	0.00000E+000	1.00003E-001	0.00000E+000	9	...........	1467.79