File: input/ECSA_test/CV_ECSA_#2_#5.DTA
EXPLAIN
TAG	CV
TITLE	LABEL	ECSA	Test Identifier
DATE	LABEL	2/13/2024	Date
TIME	LABEL	12:04:25	Time
NOTES	NOTES	1	Notes...

PSTAT	PSTAT	IFC1010-36068	Potentiostat
VINIT	POTEN	1.00000E-001	F	Initial E (V)
VLIMIT1	POTEN	3.00000E-001	F	Scan Limit 1 (V)
VLIMIT2	POTEN	1.00000E-001	F	Scan Limit 2 (V)
VFINAL	POTEN	1.00000E-001	F	Final E (V)
SCANRATE	QUANT	4.99999E+001	A Real Number
STEPSIZE	QUANT	1.00000E+000	Step Size (mV)
CYCLES	IQUANT	3	Cycles (#)
IMODE	SELECTOR	1	I/E Range Mode
IRANGE	QUANT	3.00000E-001	Max Current (mA)
AREA	QUANT	1.00000E+000	Sample Area (cm^2)
EQDELAY	QUANT	0.00000E+000	Equil. Time (s)
IRCOMP	SELECTOR	0	IRComp
PFCOR	QUANT	5.00000E+001	PF Corr. (ohm)
SAMPLINGMODE	SELECTOR	2	Sampling Mode
EOC	QUANT	0.3246219	Open Circuit (V)
ELECTRODETYPE	SELECTOR	0	Electrode Type
STRIPPING	TOGGLE	F	Used for Stripping
SEQUENCER	TOGGLE	TRUE	Run as Sequence
PSTATMODEL	IQUANT	64	Pstat Model
PSTATSECTION	LABEL	IFC1010-36068	Pstat Section
PSTATSERIALNO	LABEL	36068	Pstat Serial Number
CTRLMODE	IQUANT	1	Control Mode
ELECTROMETER	IQUANT	0	RE=0 or CS=1
IESTAB	IQUANT	2	I/E Stability
CASPEED	IQUANT	4	Control Amp Speed
CONVENTION	IQUANT	1	Current Convention
ICHRANGE	IQUANT	2	Ich Range
ICHRANGEMODE	TOGGLE	F	Ich Auto Range
ICHOFFSETENABLE	TOGGLE	F	Ich Offset Enable
ICHOFFSET	QUANT	0	Ich Offset (V)
ICHFILTER	IQUANT	3	Ich Filter
VCHRANGE	IQUANT	2	Vch Range
VCHRANGEMODE	TOGGLE	F	Vch Auto Range
VCHOFFSETENABLE	TOGGLE	F	Vch Offset Enable
VCHOFFSET	QUANT	0	Vch Offset (V)
VCHFILTER	IQUANT	3	Vch Filter
IERANGELOWERLIMIT	IQUANT	4	I/E Range Lower Limit
IERANGEMODE	TOGGLE	F	I/E AutoRange
IERANGE	IQUANT	9	I/E Range
ACHSELECT	IQUANT	0	Ach Select
ACHRANGE	IQUANT	2	Ach Range
ACHOFFSETENABLE	TOGGLE	F	Ach Offset Enable
ACHOFFSET	QUANT	0	Ach Offset (V)
ACHFILTER	IQUANT	1	Ach Filter
SENSECABLEID	IQUANT	13	Sense Cable ID
PWRCABLEID	IQUANT	13	Power Cable ID
DCCALDATE	LABEL	8/11/2023	DC Calibration Date
ACCALDATE	LABEL	6/2/2023	AC Calibration Date
FRAMEWORKVERSION	LABEL	7.10.3	Framework Version
INSTRUMENTVERSION	LABEL	4.91	Instrument Version
COMMVERSION	LABEL	3.10	Communications Version
CPUPLDVERSION	LABEL	2.22	CPU PLD Version
CTRLPLDVERSION	LABEL	0.00	CTRL PLD Version
PSTATPLDVERSION	LABEL	0.00	PSTAT PLD Version
CURVE1	TABLE
	Pt	T	Vf	Im	Vu	Sig	Ach	IERange	Over	Temp
	#	s	V vs. Ref.	A	V	V	V	#	bits	deg C
	0	0.02	9.99949E-002	-2.54434E-006	0.00000E+000	1.00003E-001	0.00000E+000	9	...........	1467.79
	1	0.04	1.00979E-001	-1.67812E-006	0.00000E+000	1.01003E-001	0.00000E+000	9	...........	1467.79
	2	0.06	1.01975E-001	-1.55693E-006	0.00000E+000	1.02002E-001	0.00000E+000	9	...........	1467.79
	3	0.08	1.02998E-001	-1.45828E-006	0.00000E+000	1.03002E-001	0.00000E+000	9	...........	1467.79
	4	0.1	1.03992E-001	-1.37950E-006	0.00000E+000	1.04002E-001	0.00000E+000	9	...........	1467.79
	5	0.12	1.04974E-001	-1.30372E-006	0.00000E+000	1.05001E-001	0.00000E+000	9	...........	1467.79
	6	0.14	1.05979E-001	-1.23428E-006	0.00000E+000	1.06001E-001	0.00000E+000	9	...........	1467.79
	7	0.16	1.06974E-001	-1.16851E-006	0.00000E+000	1.07001E-001	0.00000E+000	9	...........	1467.79
	8	0.18	1.07984E-001	-1.10486E-006	0.00000E+000	1.08000E-001	0.00000E+000	9	...........	1467.79
	9	0.2	1.08977E-001	-1.05025E-006	0.00000E+000	1.09000E-001	0.00000E+000	9	...........	1467.79
	10	0.22	1.09971E-001	-9.92968E-007	0.00000E+000	1.10000E-001	0.00000E+000	9	...........	1467.79
	11	0.24	1.10967E-001	-9.44868E-007	0.00000E+000	1.10999E-001	0.00000E+000	9	...........	1467.79
	12	0.26	1.11965E-001	-8.88087E-007	0.00000E+000	1.11999E-001	0.00000E+000	9	...........	1467.79
	13	0.28	1.12966E-001	-8.38763E-007	0.00000E+000	1.12999E-001	0.00000E+000	9	...........	1467.79
	14	0.3	1.13961E-001	-7.89744E-007	0.00000E+000	1.13998E-001	0.00000E+000	9	...........	1467.79
	15	0.32	1.14977E-001	-7.45121E-007	0.00000E+000	1.14998E-001	0.00000E+000	9	...........	1467.79
	16	0.34	1.15991E-001	-6.98523E-007	0.00000E+000	1.15997E-001	0.00000E+000	9	...........	1467.75
	17	0.36	1.16985E-001	-6.52063E-007	0.00000E+000	1.16997E-001	0.00000E+000	9	...........	1467.52
	18	0.38	1.17979E-001	-6.13450E-007	0.00000E+000	1.17997E-001	0.00000E+000	9	...........	1467.52
	19	0.4	1.18978E-001	-5.63819E-007	0.00000E+000	1.18996E-001	0.00000E+000	9	...........	1467.52
	20	0.42	1.19977E-001	-5.27208E-007	0.00000E+000	1.19996E-001	0.00000E+000	9	...........	1467.52
	21	0.44	1.20978E-001	-4.88316E-007	0.00000E+000	1.20996E-001	0.00000E+000	9	...........	1467.52
	22	0.46	1.21988E-001	-4.44722E-007	0.00000E+000	1.21995E-001	0.00000E+000	9	...........	1467.52
	23	0.48	1.22978E-001	-4.06414E-007	0.00000E+000	1.22995E-001	0.00000E+000	9	...........	1467.52
	24	0.5	1.23969E-001	-3.70777E-007	0.00000E+000	1.23995E-001	0.00000E+000	9	...........	1467.52
	25	0.52	1.24968E-001	-3.32747E-007	0.00000E+000	1.24994E-001	0.00000E+000	9	...........	1467.52
	26	0.54	1.25961E-001	-2.96748E-007	0.00000E+000	1.25994E-001	0.00000E+000	9	...........	1467.52
	27	0.56	1.26968E-001	-2.41748E-007	0.00000E+000	1.27006E-001	0.00000E+000	9	...........	1467.52
	28	0.58	1.27987E-001	-2.18102E-007	0.00000E+000	1.28006E-001	0.00000E+000	9	...........	1467.52
	29	0.6	1.28988E-001	-1.85302E-007	0.00000E+000	1.29005E-001	0.00000E+000	9	...........	1467.52
	30	0.62	1.29991E-001	-1.49470E-007	0.00000E+000	1.30005E-001	0.00000E+000	9	...........	1467.52
	31	0.64	1.30994E-001	-1.16698E-007	0.00000E+000	1.31005E-001	0.00000E+000	9	...........	1467.52
	32	0.66	1.31993E-001	-7.83346E-008	0.00000E+000	1.32004E-001	0.00000E+000	9	...........	1467.52
	33	0.68	1.32989E-001	-5.15163E-008	0.00000E+000	1.33004E-001	0.00000E+000	9	...........	1467.52
	34	0.7	1.33979E-001	-1.61016E-008	0.00000E+000	1.34004E-001	0.00000E+000	9	...........	1467.52
	35	0.72	1.34983E-001	1.90627E-008	0.00000E+000	1.35003E-001	0.00000E+000	9	...........	1467.52
	36	0.74	1.35981E-001	4.57976E-008	0.00000E+000	1.36003E-001	0.00000E+000	9	...........	1467.52
	37	0.76	1.36978E-001	7.78739E-008	0.00000E+000	1.37003E-001	0.00000E+000	9	...........	1467.52
	38	0.78	1.37983E-001	1.14680E-007	0.00000E+000	1.38002E-001	0.00000E+000	9	...........	1467.52
	39	0.8	1.38980E-001	1.38605E-007	0.00000E+000	1.39002E-001	0.00000E+000	9	...........	1467.52
	40	0.82	1.39966E-001	1.65117E-007	0.00000E+000	1.40002E-001	0.00000E+000	9	...........	1467.52
	41	0.84	1.40986E-001	1.97360E-007	0.00000E+000	1.41001E-001	0.00000E+000	9	...........	1467.52
	42	0.86	1.41979E-001	2.27573E-007	0.00000E+000	1.42001E-001	0.00000E+000	9	...........	1467.52
	43	0.88	1.42985E-001	2.47603E-007	0.00000E+000	1.43001E-001	0.00000E+000	9	...........	1467.52
	44	0.9	1.43986E-001	2.84436E-007	0.00000E+000	1.44000E-001	0.00000E+000	9	...........	1467.52
	45	0.92	1.44982E-001	3.16318E-007	0.00000E+000	1.45000E-001	0.00000E+000	9	...........	1467.52
	46	0.94	1.45977E-001	3.44722E-007	0.00000E+000	1.46000E-001	0.00000E+000	9	...........	1467.52
	47	0.96	1.46985E-001	3.72737E-007	0.00000E+000	1.46999E-001	0.00000E+000	9	...........	1467.52
	48	0.98	1.47987E-001	4.01419E-007	0.00000E+000	1.47999E-001	0.00000E+000	9	...........	1467.52
	49	1	1.48977E-001	4.22367E-007	0.00000E+000	1.48998E-001	0.00000E+000	9	...........	1467.52
	50	1.02	1.49978E-001	4.53303E-007	0.00000E+000	1.49998E-001	0.00000E+000	9	...........	1467.52
	51	1.04	1.50970E-001	4.80093E-007	0.00000E+000	1.50998E-001	0.00000E+000	9	...........	1467.52
	52	1.06	1.51967E-001	5.07162E-007	0.00000E+000	1.51997E-001	0.00000E+000	9	...........	1467.52
	53	1.08	1.52961E-001	5.31532E-007	0.00000E+000	1.52997E-001	0.00000E+000	9	...........	1467.52
	54	1.1	1.53968E-001	5.55624E-007	0.00000E+000	1.53997E-001	0.00000E+000	9	...........	1467.52
	55	1.12	1.54980E-001	5.80467E-007	0.00000E+000	1.54996E-001	0.00000E+000	9	...........	1467.52
	56	1.14	1.55979E-001	6.04114E-007	0.00000E+000	1.55996E-001	0.00000E+000	9	...........	1467.52
	57	1.16	1.56984E-001	6.27817E-007	0.00000E+000	1.56996E-001	0.00000E+000	9	...........	1467.52
	58	1.18	1.57975E-001	6.58307E-007	0.00000E+000	1.57995E-001	0.00000E+000	9	...........	1467.52
	59	1.2	1.58957E-001	6.80341E-007	0.00000E+000	1.58995E-001	0.00000E+000	9	...........	1467.52
	60	1.22	1.59968E-001	7.06185E-007	0.00000E+000	1.59995E-001	0.00000E+000	9	...........	1467.52
	61	1.24	1.60964E-001	7.33560E-007	0.00000E+000	1.60994E-001	0.00000E+000	9	...........	1467.52
	62	1.26	1.61960E-001	7.59266E-007	0.00000E+000	1.61994E-001	0.00000E+000	9	...........	1467.52
	63	1.28	1.62976E-001	7.93762E-007	0.00000E+000	1.63006E-001	0.00000E+000	9	...........	1467.52
	64	1.3	1.63982E-001	8.09703E-007	0.00000E+000	1.64006E-001	0.00000E+000	9	...........	1467.52
	65	1.32	1.64968E-001	8.39442E-007	0.00000E+000	1.65005E-001	0.00000E+000	9	...........	1467.52
	66	1.34	1.65965E-001	8.60613E-007	0.00000E+000	1.66005E-001	0.00000E+000	9	...........	1467.52
	67	1.36	1.66995E-001	8.87849E-007	0.00000E+000	1.67005E-001	0.00000E+000	9	...........	1467.52
	68	1.38	1.67994E-001	9.12330E-007	0.00000E+000	1.68004E-001	0.00000E+000	9	...........	1467.52
	69	1.4	1.68987E-001	9.38231E-007	0.00000E+000	1.69004E-001	0.00000E+000	9	...........	1467.52
	70	1.42	1.69993E-001	9.61043E-007	0.00000E+000	1.70004E-001	0.00000E+000	9	...........	1467.52
	71	1.44	1.70977E-001	9.84745E-007	0.00000E+000	1.71003E-001	0.00000E+000	9	...........	1467.52
	72	1.46	1.71972E-001	1.01003E-006	0.00000E+000	1.72003E-001	0.00000E+000	9	...........	1467.52
	73	1.48	1.72983E-001	1.02737E-006	0.00000E+000	1.73003E-001	0.00000E+000	9	...........	1467.52
	74	1.5	1.73979E-001	1.05090E-006	0.00000E+000	1.74002E-001	0.00000E+000	9	...........	1467.52
	75	1.52	1.74972E-001	1.07260E-006	0.00000E+000	1.75002E-001	0.00000E+000	9	...........	1467.52
	76	1.54	1.75979E-001	1.08993E-006	0.00000E+000	1.76002E-001	0.00000E+000	9	...........	1467.52
	77	1.56	1.76965E-001	1.12129E-006	0.00000E+000	1.77001E-001	0.00000E+000	9	...........	1467.52
	78	1.58	1.77951E-001	1.14290E-006	0.00000E+000	1.78001E-001	0.00000E+000	9	...........	1467.52
	79	1.6	1.78942E-001	1.16176E-006	0.00000E+000	1.79000E-001	0.00000E+000	9	...........	1467.52
	80	1.62	1.79953E-001	1.18318E-006	0.00000E+000	1.80000E-001	0.00000E+000	9	...........	1467.52
	81	1.64	1.80969E-001	1.20650E-006	0.00000E+000	1.81000E-001	0.00000E+000	9	...........	1467.52
	82	1.66	1.81969E-001	1.22553E-006	0.00000E+000	1.81999E-001	0.00000E+000	9	...........	1467.52
	83	1.68	1.82968E-001	1.25120E-006	0.00000E+000	1.82999E-001	0.00000E+000	9	...........	1467.52
	84	1.7	1.83970E-001	1.27474E-006	0.00000E+000	1.83999E-001	0.00000E+000	9	...........	1467.52
	85	1.72	1.84974E-001	1.29752E-006	0.00000E+000	1.84998E-001	0.00000E+000	9	...........	1467.52
	86	1.74	1.85975E-001	1.31800E-006	0.00000E+000	1.85998E-001	0.00000E+000	9	...........	1467.52
	87	1.76	1.86977E-001	1.33742E-006	0.00000E+000	1.86998E-001	0.00000E+000	9	...........	1467.52
	88	1.78	1.87973E-001	1.36001E-006	0.00000E+000	1.87997E-001	0.00000E+000	9	...........	1467.52
	89	1.8	1.88970E-001	1.37561E-006	0.00000E+000	1.88997E-001	0.00000E+000	9	...........	1467.52
	90	1.82	1.89970E-001	1.40021E-006	0.00000E+000	1.89997E-001	0.00000E+000	9	...........	1467.52
	91	1.84	1.90966E-001	1.42294E-006	0.00000E+000	1.90996E-001	0.00000E+000	9	...........	1467.52
	92	1.86	1.91997E-001	1.43651E-006	0.00000E+000	1.91996E-001	0.00000E+000	9	...........	1467.52
	93	1.88	1.92997E-001	1.46241E-006	0.00000E+000	1.92996E-001	0.00000E+000	9	...........	1467.52
	94	1.9	1.93990E-001	1.48063E-006	0.00000E+000	1.93995E-001	0.00000E+000	9	...........	1467.52
	95	1.92	1.94981E-001	1.50826E-006	0.00000E+000	1.94995E-001	0.00000E+000	9	...........	1467.52
	96	1.94	1.95980E-001	1.52531E-006	0.00000E+000	1.95995E-001	0.00000E+000	9	...........	1467.52
	97	1.96	1.96980E-001	1.54532E-006	0.00000E+000	1.96994E-001	0.00000E+000	9	...........	1467.52
	98	1.98	1.97976E-001	1.56137E-006	0.00000E+000	1.97994E-001	0.00000E+000	9	...........	1467.52
	99	2	1.98998E-001	1.59364E-006	0.00000E+000	1.99006E-001	0.00000E+000	9	...........	1467.52
	100	2.02	1.99995E-001	1.60073E-006	0.00000E+000	2.00006E-001	0.00000E+000	9	...........	1467.52
	101	2.04	2.00984E-001	1.62738E-006	0.00000E+000	2.01005E-001	0.00000E+000	9	...........	1467.52
	102	2.06	2.01978E-001	1.64294E-006	0.00000E+000	2.02005E-001	0.00000E+000	9	...........	1467.52
	103	2.08	2.02980E-001	1.66361E-006	0.00000E+000	2.03005E-001	0.00000E+000	9	...........	1467.52
	104	2.1	2.03974E-001	1.68528E-006	0.00000E+000	2.04004E-001	0.00000E+000	9	...........	1467.52
	105	2.12	2.04987E-001	1.70509E-006	0.00000E+000	2.05004E-001	0.00000E+000	9	...........	1467.52
	106	2.14	2.05980E-001	1.72506E-006	0.00000E+000	2.06004E-001	0.00000E+000	9	...........	1467.52
	107	2.16	2.06972E-001	1.73900E-006	0.00000E+000	2.07003E-001	0.00000E+000	9	...........	1467.52
	108	2.18	2.07980E-001	1.76387E-006	0.00000E+000	2.08003E-001	0.00000E+000	9	...........	1467.52
	109	2.2	2.08974E-001	1.77833E-006	0.00000E+000	2.09003E-001	0.00000E+000	9	...........	1467.52
	110	2.22	2.09968E-001	1.80346E-006	0.00000E+000	2.10002E-001	0.00000E+000	9	...........	1467.52
	111	2.24	2.10970E-001	1.82031E-006	0.00000E+000	2.11002E-001	0.00000E+000	9	...........	1467.52
	112	2.26	2.11975E-001	1.83745E-006	0.00000E+000	2.12001E-001	0.00000E+000	9	...........	1467.52
	113	2.28	2.12963E-001	1.86035E-006	0.00000E+000	2.13001E-001	0.00000E+000	9	...........	1467.52
	114	2.3	2.13957E-001	1.88004E-006	0.00000E+000	2.14001E-001	0.00000E+000	9	...........	1467.52
	115	2.32	2.14961E-001	1.90074E-006	0.00000E+000	2.15000E-001	0.00000E+000	9	...........	1467.52
	116	2.34	2.15962E-001	1.91652E-006	0.00000E+000	2.16000E-001	0.00000E+000	9	...........	1467.52
	117	2.36	2.16956E-001	1.93535E-006	0.00000E+000	2.17000E-001	0.00000E+000	9	...........	1467.52
	118	2.38	2.17988E-001	1.95688E-006	0.00000E+000	2.17999E-001	0.00000E+000	9	...........	1467.52
	119	2.4	2.18974E-001	1.97878E-006	0.00000E+000	2.18999E-001	0.00000E+000	9	...........	1467.52
	120	2.42	2.19970E-001	1.99628E-006	0.00000E+000	2.19999E-001	0.00000E+000	9	...........	1467.52
	121	2.44	2.20978E-001	2.01564E-006	0.00000E+000	2.20998E-001	0.00000E+000	9	...........	1467.52
	122	2.46	2.21969E-001	2.04168E-006	0.00000E+000	2.21998E-001	0.00000E+000	9	...........	1467.52
	123	2.48	2.22968E-001	2.05639E-006	0.00000E+000	2.22998E-001	0.00000E+000	9	...........	1467.52
	124	2.5	2.23975E-001	2.07620E-006	0.00000E+000	2.23997E-001	0.00000E+000	9	...........	1467.52
	125	2.52	2.24959E-001	2.09267E-006	0.00000E+000	2.24997E-001	0.00000E+000	9	...........	1467.52
	126	2.54	2.25954E-001	2.10942E-006	0.00000E+000	2.25997E-001	0.00000E+000	9	...........	1467.52
	127	2.56	2.26949E-001	2.13337E-006	0.00000E+000	2.26996E-001	0.00000E+000	9	...........	1467.52
	128	2.58	2.27957E-001	2.14620E-006	0.00000E+000	2.27996E-001	0.00000E+000	9	...........	1467.52
	129	2.6	2.28958E-001	2.18603E-006	0.00000E+000	2.28996E-001	0.00000E+000	9	...........	1467.52
	130	2.62	2.29950E-001	2.24479E-006	0.00000E+000	2.29995E-001	0.00000E+000	9	...........	1467.52
	131	2.64	2.30965E-001	2.25859E-006	0.00000E+000	2.30995E-001	0.00000E+000	9	...........	1467.52
	132	2.66	2.31966E-001	2.27434E-006	0.00000E+000	2.31994E-001	0.00000E+000	9	...........	1467.52
	133	2.68	2.32960E-001	2.28276E-006	0.00000E+000	2.32994E-001	0.00000E+000	9	...........	1467.52
	134	2.7	2.33961E-001	2.30074E-006	0.00000E+000	2.33994E-001	0.00000E+000	9	...........	1467.52
	135	2.72	2.34966E-001	2.32302E-006	0.00000E+000	2.35006E-001	0.00000E+000	9	...........	1467.52
	136	2.74	2.35963E-001	2.33112E-006	0.00000E+000	2.36006E-001	0.00000E+000	9	...........	1467.52
	137	2.76	2.36966E-001	2.34564E-006	0.00000E+000	2.37005E-001	0.00000E+000	9	...........	1467.52
	138	2.78	2.37961E-001	2.36122E-006	0.00000E+000	2.38005E-001	0.00000E+000	9	...........	1467.52
	139	2.8	2.38960E-001	2.38063E-006	0.00000E+000	2.39005E-001	0.00000E+000	9	...........	1467.52
	140	2.82	2.39969E-001	2.39805E-006	0.00000E+000	2.40004E-001	0.00000E+000	9	...........	1467.52
	141	2.84	2.40958E-001	2.41438E-006	0.00000E+000	2.41004E-001	0.00000E+000	9	...........	1467.52
	142	2.86	2.41965E-001	2.43302E-006	0.00000E+000	2.42004E-001	0.00000E+000	9	...........	1467.52
	143	2.88	2.42977E-001	2.45038E-006	0.00000E+000	2.43003E-001	0.00000E+000	9	...........	1467.52
	144	2.9	2.43995E-001	2.46593E-006	0.00000E+000	2.44003E-001	0.00000E+000	9	...........	1467.52
	145	2.92	2.44986E-001	2.48401E-006	0.00000E+000	2.45002E-001	0.00000E+000	9	...........	1467.52
	146	2.94	2.45983E-001	2.50566E-006	0.00000E+000	2.46002E-001	0.00000E+000	9	...........	1467.52
	147	2.96	2.46979E-001	2.52254E-006	0.00000E+000	2.47002E-001	0.00000E+000	9	...........	1467.52
	148	2.98	2.47979E-001	2.54116E-006	0.00000E+000	2.48001E-001	0.00000E+000	9	...........	1467.52
	149	3	2.48973E-001	2.55785E-006	0.00000E+000	2.49001E-001	0.00000E+000	9	...........	1467.52
	150	3.02	2.49978E-001	2.57771E-006	0.00000E+000	2.50001E-001	0.00000E+000	9	...........	1467.52
	151	3.04	2.50975E-001	2.59791E-006	0.00000E+000	2.51000E-001	0.00000E+000	9	...........	1467.52
	152	3.06	2.51965E-001	2.61159E-006	0.00000E+000	2.52000E-001	0.00000E+000	9	...........	1467.52
	153	3.08	2.52954E-001	2.63580E-006	0.00000E+000	2.53000E-001	0.00000E+000	9	...........	1467.52
	154	3.1	2.53949E-001	2.65549E-006	0.00000E+000	2.53999E-001	0.00000E+000	9	...........	1467.52
	155	3.12	2.54948E-001	2.67806E-006	0.00000E+000	2.54999E-001	0.00000E+000	9	...........	1467.52
	156	3.14	2.55967E-001	2.69266E-006	0.00000E+000	2.55999E-001	0.00000E+000	9	...........	1467.52
	157	3.16	2.56975E-001	2.71570E-006	0.00000E+000	2.56998E-001	0.00000E+000	9	...........	1467.52
	158	3.18	2.57970E-001	2.72936E-006	0.00000E+000	2.57998E-001	0.00000E+000	9	...........	1467.52
	159	3.2	2.58966E-001	2.75114E-006	0.00000E+000	2.58998E-001	0.00000E+000	9	...........	1467.52
	160	3.22	2.59968E-001	2.76897E-006	0.00000E+000	2.59997E-001	0.00000E+000	9	...........	1467.52
	161	3.24	2.60970E-001	2.78970E-006	0.00000E+000	2.60997E-001	0.00000E+000	9	...........	1467.52
	162	3.26	2.61965E-001	2.81137E-006	0.00000E+000	2.61997E-001	0.00000E+000	9	...........	1467.52
	163	3.28	2.62973E-001	2.82820E-006	0.00000E+000	2.62996E-001	0.00000E+000	9	...........	1467.52
	164	3.3	2.63972E-001	2.84920E-006	0.00000E+000	2.63996E-001	0.00000E+000	9	...........	1467.52
	165	3.32	2.64970E-001	2.87071E-006	0.00000E+000	2.64995E-001	0.00000E+000	9	...........	1467.52
	166	3.34	2.65973E-001	2.89561E-006	0.00000E+000	2.65995E-001	0.00000E+000	9	...........	1467.52
	167	3.36	2.66959E-001	2.90952E-006	0.00000E+000	2.66995E-001	0.00000E+000	9	...........	1467.52
	168	3.38	2.67959E-001	2.93255E-006	0.00000E+000	2.67994E-001	0.00000E+000	9	...........	1467.52
	169	3.4	2.68991E-001	2.94880E-006	0.00000E+000	2.68994E-001	0.00000E+000	9	...........	1467.52
	170	3.42	2.69984E-001	2.97228E-006	0.00000E+000	2.69994E-001	0.00000E+000	9	...........	1467.52
	171	3.44	2.70997E-001	3.00199E-006	0.00000E+000	2.71006E-001	0.00000E+000	9	...........	1467.52
	172	3.46	2.71986E-001	3.01095E-006	0.00000E+000	2.72006E-001	0.00000E+000	9	...........	1467.52
	173	3.48	2.72987E-001	3.03596E-006	0.00000E+000	2.73005E-001	0.00000E+000	9	...........	1467.52
	174	3.5	2.73984E-001	3.05282E-006	0.00000E+000	2.74005E-001	0.00000E+000	9	...........	1467.52
	175	3.52	2.74974E-001	3.07354E-006	0.00000E+000	2.75004E-001	0.00000E+000	9	...........	1467.52
	176	3.54	2.75980E-001	3.09171E-006	0.00000E+000	2.76004E-001	0.00000E+000	9	...........	1467.52
	177	3.56	2.76979E-001	3.11825E-006	0.00000E+000	2.77004E-001	0.00000E+000	9	...........	1467.52
	178	3.58	2.77972E-001	3.14379E-006	0.00000E+000	2.78003E-001	0.00000E+000	9	...........	1467.52
	179	3.6	2.78954E-001	3.16070E-006	0.00000E+000	2.79003E-001	0.00000E+000	9	...........	1467.52
	180	3.62	2.79957E-001	3.18699E-006	0.00000E+000	2.80003E-001	0.00000E+000	9	...........	1467.52
	181	3.64	2.80956E-001	3.20563E-006	0.00000E+000	2.81002E-001	0.00000E+000	9	...........	1467.52
	182	3.66	2.81968E-001	3.23431E-006	0.00000E+000	2.82002E-001	0.00000E+000	9	...........	1467.52
	183	3.68	2.82975E-001	3.24617E-006	0.00000E+000	2.83002E-001	0.00000E+000	9	...........	1467.52
	184	3.7	2.83986E-001	3.27115E-006	0.00000E+000	2.84001E-001	0.00000E+000	9	...........	1467.52
	185	3.72	2.84983E-001	3.29418E-006	0.00000E+000	2.85001E-001	0.00000E+000	9	...........	1467.52
	186	3.74	2.85976E-001	3.31477E-006	0.00000E+000	2.86001E-001	0.00000E+000	9	...........	1467.52
	187	3.76	2.86969E-001	3.33967E-006	0.00000E+000	2.87000E-001	0.00000E+000	9	...........	1467.52
	188	3.78	2.87983E-001	3.36140E-006	0.00000E+000	2.88000E-001	0.00000E+000	9	...........	1467.52
	189	3.8	2.88979E-001	3.38106E-006	0.00000E+000	2.89000E-001	0.00000E+000	9	...........	1467.52
	190	3.82	2.89970E-001	3.40265E-006	0.00000E+000	2.89999E-001	0.00000E+000	9	...........	1467.52
	191	3.84	2.90954E-001	3.43050E-006	0.00000E+000	2.90999E-001	0.00000E+000	9	...........	1467.52
	192	3.86	2.91960E-001	3.45223E-006	0.00000E+000	2.91999E-001	0.00000E+000	9	...........	1467.52
	193	3.88	2.92963E-001	3.47902E-006	0.00000E+000	2.92998E-001	0.00000E+000	9	...........	1467.52
	194	3.9	2.93957E-001	3.49805E-006	0.00000E+000	2.93998E-001	0.00000E+000	9	...........	1467.52
	195	3.92	2.94998E-001	3.52392E-006	0.00000E+000	2.94998E-001	0.00000E+000	9	...........	1467.52
	196	3.94	2.95985E-001	3.54726E-006	0.00000E+000	2.95997E-001	0.00000E+000	9	...........	1467.52
	197	3.96	2.96976E-001	3.57575E-006	0.00000E+000	2.96997E-001	0.00000E+000	9	...........	1467.52
	198	3.98	2.97977E-001	3.59917E-006	0.00000E+000	2.97996E-001	0.00000E+000	9	...........	1467.52
	199	4	2.98971E-001	3.62029E-006	0.00000E+000	2.98996E-001	0.00000E+000	9	...........	1467.52
	200	4.02	2.99975E-001	3.65017E-006	0.00000E+000	2.99996E-001	0.00000E+000	9	...........	1467.52
	201	4.04	2.98999E-001	2.02916E-006	0.00000E+000	2.98996E-001	0.00000E+000	9	...........	1467.52
	202	4.06	2.97994E-001	1.85122E-006	0.00000E+000	2.97996E-001	0.00000E+000	9	...........	1467.52
	203	4.08	2.96995E-001	1.71705E-006	0.00000E+000	2.96997E-001	0.00000E+000	9	...........	1467.52
	204	4.1	2.96009E-001	1.61233E-006	0.00000E+000	2.95997E-001	0.00000E+000	9	...........	1467.52
	205	4.12	2.95014E-001	1.52231E-006	0.00000E+000	2.94998E-001	0.00000E+000	9	...........	1467.52
	206	4.14	2.93982E-001	1.44038E-006	0.00000E+000	2.93998E-001	0.00000E+000	9	...........	1467.52
	207	4.16	2.92980E-001	1.37481E-006	0.00000E+000	2.92998E-001	0.00000E+000	9	...........	1467.52
	208	4.18	2.91983E-001	1.30348E-006	0.00000E+000	2.91999E-001	0.00000E+000	9	...........	1467.52
	209	4.2	2.90972E-001	1.24180E-006	0.00000E+000	2.90999E-001	0.00000E+000	9	...........	1467.52
	210	4.22	2.89990E-001	1.18260E-006	0.00000E+000	2.89999E-001	0.00000E+000	9	...........	1467.52
	211	4.24	2.88993E-001	1.13289E-006	0.00000E+000	2.89000E-001	0.00000E+000	9	...........	1467.52
	212	4.26	2.88000E-001	1.08356E-006	0.00000E+000	2.88000E-001	0.00000E+000	9	...........	1467.52
	213	4.28	2.86998E-001	1.03471E-006	0.00000E+000	2.87000E-001	0.00000E+000	9	...........	1467.52
	214	4.3	2.86003E-001	9.85497E-007	0.00000E+000	2.86001E-001	0.00000E+000	9	...........	1467.52
	215	4.32	2.85002E-001	9.38787E-007	0.00000E+000	2.85001E-001	0.00000E+000	9	...........	1467.52
	216	4.34	2.84008E-001	8.94081E-007	0.00000E+000	2.84001E-001	0.00000E+000	9	...........	1467.52
	217	4.36	2.82998E-001	8.55411E-007	0.00000E+000	2.83002E-001	0.00000E+000	9	...........	1467.52
	218	4.38	2.81989E-001	8.14377E-007	0.00000E+000	2.82002E-001	0.00000E+000	9	...........	1467.52
	219	4.4	2.80973E-001	7.76347E-007	0.00000E+000	2.81002E-001	0.00000E+000	9	...........	1467.52
	220	4.42	2.79979E-001	7.36732E-007	0.00000E+000	2.80003E-001	0.00000E+000	9	...........	1467.52
	221	4.44	2.78979E-001	7.01623E-007	0.00000E+000	2.79003E-001	0.00000E+000	9	...........	1467.52
	222	4.46	2.77988E-001	6.65596E-007	0.00000E+000	2.78003E-001	0.00000E+000	9	...........	1467.52
	223	4.48	2.76994E-001	6.29236E-007	0.00000E+000	2.77004E-001	0.00000E+000	9	...........	1467.52
	224	4.5	2.75996E-001	5.95240E-007	0.00000E+000	2.76004E-001	0.00000E+000	9	...........	1467.52
	225	4.52	2.74988E-001	5.63748E-007	0.00000E+000	2.75004E-001	0.00000E+000	9	...........	1467.52
	226	4.54	2.73991E-001	5.27804E-007	0.00000E+000	2.74005E-001	0.00000E+000	9	...........	1467.52
	227	4.56	2.72992E-001	4.97175E-007	0.00000E+000	2.73005E-001	0.00000E+000	9	...........	1467.52
	228	4.58	2.71993E-001	4.64932E-007	0.00000E+000	2.72006E-001	0.00000E+000	9	...........	1467.52
	229	4.6	2.71004E-001	4.34246E-007	0.00000E+000	2.71006E-001	0.00000E+000	9	...........	1467.52
	230	4.62	2.70001E-001	3.92683E-007	0.00000E+000	2.69994E-001	0.00000E+000	9	...........	1467.52
	231	4.64	2.69009E-001	3.70845E-007	0.00000E+000	2.68994E-001	0.00000E+000	9	...........	1467.52
	232	4.66	2.67970E-001	3.44833E-007	0.00000E+000	2.67994E-001	0.00000E+000	9	...........	1467.52
	233	4.68	2.66964E-001	3.19239E-007	0.00000E+000	2.66995E-001	0.00000E+000	9	...........	1467.52
	234	4.7	2.65976E-001	2.86745E-007	0.00000E+000	2.65995E-001	0.00000E+000	9	...........	1467.52
	235	4.72	2.64980E-001	2.60233E-007	0.00000E+000	2.64995E-001	0.00000E+000	9	...........	1467.52
	236	4.74	2.63987E-001	2.35612E-007	0.00000E+000	2.63996E-001	0.00000E+000	9	...........	1467.52
	237	4.76	2.62989E-001	2.06541E-007	0.00000E+000	2.62996E-001	0.00000E+000	9	...........	1467.52
	238	4.78	2.61980E-001	1.82143E-007	0.00000E+000	2.61997E-001	0.00000E+000	9	...........	1467.52
	239	4.8	2.60985E-001	1.59080E-007	0.00000E+000	2.60997E-001	0.00000E+000	9	...........	1467.52
	240	4.82	2.59990E-001	1.28534E-007	0.00000E+000	2.59997E-001	0.00000E+000	9	...........	1467.52
	241	4.84	2.58986E-001	1.01409E-007	0.00000E+000	2.58998E-001	0.00000E+000	9	...........	1467.52
	242	4.86	2.57988E-001	7.72062E-008	0.00000E+000	2.57998E-001	0.00000E+000	9	...........	1467.52
	243	4.88	2.56984E-001	5.32533E-008	0.00000E+000	2.56998E-001	0.00000E+000	9	...........	1467.52
	244	4.9	2.55983E-001	2.59620E-008	0.00000E+000	2.55999E-001	0.00000E+000	9	...........	1467.52
	245	4.92	2.54977E-001	-7.45015E-010	0.00000E+000	2.54999E-001	0.00000E+000	9	...........	1467.52
	246	4.94	2.53980E-001	-2.93160E-008	0.00000E+000	2.53999E-001	0.00000E+000	9	...........	1467.52
	247	4.96	2.52979E-001	-5.44096E-008	0.00000E+000	2.53000E-001	0.00000E+000	9	...........	1467.52
	248	4.98	2.51986E-001	-7.60256E-008	0.00000E+000	2.52000E-001	0.00000E+000	9	...........	1467.52
	249	5	2.50991E-001	-9.48874E-008	0.00000E+000	2.51000E-001	0.00000E+000	9	...........	1467.52
	250	5.02	2.49996E-001	-1.18423E-007	0.00000E+000	2.50001E-001	0.00000E+000	9	...........	1467.52
	251	5.04	2.48992E-001	-1.41207E-007	0.00000E+000	2.49001E-001	0.00000E+000	9	...........	1467.52
	252	5.06	2.47997E-001	-1.63964E-007	0.00000E+000	2.48001E-001	0.00000E+000	9	...........	1467.52
	253	5.08	2.46999E-001	-1.86721E-007	0.00000E+000	2.47002E-001	0.00000E+000	9	...........	1467.52
	254	5.1	2.46001E-001	-2.07947E-007	0.00000E+000	2.46002E-001	0.00000E+000	9	...........	1467.52
	255	5.12	2.45002E-001	-2.32123E-007	0.00000E+000	2.45002E-001	0.00000E+000	9	...........	1467.52
	256	5.14	2.44007E-001	-2.55575E-007	0.00000E+000	2.44003E-001	0.00000E+000	9	...........	1467.52
	257	5.16	2.43005E-001	-2.76134E-007	0.00000E+000	2.43003E-001	0.00000E+000	9	...........	1467.52
	258	5.18	2.41996E-001	-2.97499E-007	0.00000E+000	2.42004E-001	0.00000E+000	9	...........	1467.52
	259	5.2	2.40990E-001	-3.18893E-007	0.00000E+000	2.41004E-001	0.00000E+000	9	...........	1467.52
	260	5.22	2.40003E-001	-3.48438E-007	0.00000E+000	2.40004E-001	0.00000E+000	9	...........	1467.52
	261	5.24	2.38995E-001	-3.73475E-007	0.00000E+000	2.39005E-001	0.00000E+000	9	...........	1467.52
	262	5.26	2.37999E-001	-3.97234E-007	0.00000E+000	2.38005E-001	0.00000E+000	9	...........	1467.52
	263	5.28	2.36998E-001	-4.18905E-007	0.00000E+000	2.37005E-001	0.00000E+000	9	...........	1467.52
	264	5.3	2.35990E-001	-4.38797E-007	0.00000E+000	2.36006E-001	0.00000E+000	9	...........	1467.52
	265	5.32	2.34997E-001	-4.58799E-007	0.00000E+000	2.35006E-001	0.00000E+000	9	...........	1467.52
	266	5.34	2.33991E-001	-4.94937E-007	0.00000E+000	2.33994E-001	0.00000E+000	9	...........	1467.52
	267	5.36	2.32992E-001	-5.07094E-007	0.00000E+000	2.32994E-001	0.00000E+000	9	...........	1467.52
	268	5.38	2.31994E-001	-5.31937E-007	0.00000E+000	2.31994E-001	0.00000E+000	9	...........	1467.52
	269	5.4	2.30994E-001	-5.51050E-007	0.00000E+000	2.30995E-001	0.00000E+000	9	...........	1467.52
	270	5.42	2.29981E-001	-5.73027E-007	0.00000E+000	2.29995E-001	0.00000E+000	9	...........	1467.52
	271	5.44	2.28984E-001	-5.98594E-007	0.00000E+000	2.28996E-001	0.00000E+000	9	...........	1467.52
	272	5.46	2.27985E-001	-6.20182E-007	0.00000E+000	2.27996E-001	0.00000E+000	9	...........	1467.52
	273	5.48	2.26972E-001	-6.41297E-007	0.00000E+000	2.26996E-001	0.00000E+000	9	...........	1467.52
	274	5.5	2.25979E-001	-6.60103E-007	0.00000E+000	2.25997E-001	0.00000E+000	9	...........	1467.52
	275	5.52	2.24983E-001	-6.82693E-007	0.00000E+000	2.24997E-001	0.00000E+000	9	...........	1467.52
	276	5.54	2.23995E-001	-7.05311E-007	0.00000E+000	2.23997E-001	0.00000E+000	9	...........	1467.52
	277	5.56	2.22992E-001	-7.24145E-007	0.00000E+000	2.22998E-001	0.00000E+000	9	...........	1467.52
	278	5.58	2.21993E-001	-7.45733E-007	0.00000E+000	2.21998E-001	0.00000E+000	9	...........	1467.52
	279	5.6	2.20999E-001	-7.70354E-007	0.00000E+000	2.20998E-001	0.00000E+000	9	...........	1467.52
	280	5.62	2.20001E-001	-7.94306E-007	0.00000E+000	2.19999E-001	0.00000E+000	9	...........	1467.52
	281	5.64	2.18995E-001	-8.19539E-007	0.00000E+000	2.18999E-001	0.00000E+000	9	...........	1467.52
	282	5.66	2.18009E-001	-8.37399E-007	0.00000E+000	2.17999E-001	0.00000E+000	9	...........	1467.52
	283	5.68	2.16986E-001	-8.60573E-007	0.00000E+000	2.17000E-001	0.00000E+000	9	...........	1467.52
	284	5.7	2.15983E-001	-8.86752E-007	0.00000E+000	2.16000E-001	0.00000E+000	9	...........	1467.52
	285	5.72	2.14981E-001	-9.09842E-007	0.00000E+000	2.15000E-001	0.00000E+000	9	...........	1467.52
	286	5.74	2.13976E-001	-9.30679E-007	0.00000E+000	2.14001E-001	0.00000E+000	9	...........	1467.52
	287	5.76	2.12983E-001	-9.57609E-007	0.00000E+000	2.13001E-001	0.00000E+000	9	...........	1467.52
	288	5.78	2.11997E-001	-9.76387E-007	0.00000E+000	2.12001E-001	0.00000E+000	9	...........	1467.52
	289	5.8	2.10993E-001	-1.00106E-006	0.00000E+000	2.11002E-001	0.00000E+000	9	...........	1467.52
	290	5.82	2.09988E-001	-1.02285E-006	0.00000E+000	2.10002E-001	0.00000E+000	9	...........	1467.52
	291	5.84	2.08991E-001	-1.04193E-006	0.00000E+000	2.09003E-001	0.00000E+000	9	...........	1467.52
	292	5.86	2.07993E-001	-1.06602E-006	0.00000E+000	2.08003E-001	0.00000E+000	9	...........	1467.52
	293	5.88	2.06990E-001	-1.09187E-006	0.00000E+000	2.07003E-001	0.00000E+000	9	...........	1467.52
	294	5.9	2.06005E-001	-1.11368E-006	0.00000E+000	2.06004E-001	0.00000E+000	9	...........	1467.52
	295	5.92	2.05007E-001	-1.13649E-006	0.00000E+000	2.05004E-001	0.00000E+000	9	...........	1467.52
	296	5.94	2.04000E-001	-1.15207E-006	0.00000E+000	2.04004E-001	0.00000E+000	9	...........	1467.52
	297	5.96	2.02995E-001	-1.18011E-006	0.00000E+000	2.03005E-001	0.00000E+000	9	...........	1467.52
	298	5.98	2.01995E-001	-1.19856E-006	0.00000E+000	2.02005E-001	0.00000E+000	9	...........	1467.52
	299	6	2.00994E-001	-1.22329E-006	0.00000E+000	2.01005E-001	0.00000E+000	9	...........	1467.52
	300	6.02	2.00005E-001	-1.24223E-006	0.00000E+000	2.00006E-001	0.00000E+000	9	...........	1467.52
	301	6.04	1.99012E-001	-1.25923E-006	0.00000E+000	1.99006E-001	0.00000E+000	9	...........	1467.52
	302	6.06	1.97993E-001	-1.29935E-006	0.00000E+000	1.97994E-001	0.00000E+000	9	...........	1467.52
	303	6.08	1.96994E-001	-1.30689E-006	0.00000E+000	1.96994E-001	0.00000E+000	9	...........	1467.52
	304	6.1	1.95998E-001	-1.32998E-006	0.00000E+000	1.95995E-001	0.00000E+000	9	...........	1467.52
	305	6.12	1.94999E-001	-1.35724E-006	0.00000E+000	1.94995E-001	0.00000E+000	9	...........	1467.52
	306	6.14	1.94008E-001	-1.37666E-006	0.00000E+000	1.93995E-001	0.00000E+000	9	...........	1467.52
	307	6.16	1.93016E-001	-1.39747E-006	0.00000E+000	1.92996E-001	0.00000E+000	9	...........	1467.52
	308	6.18	1.92016E-001	-1.41895E-006	0.00000E+000	1.91996E-001	0.00000E+000	9	...........	1467.52
	309	6.2	1.90982E-001	-1.44732E-006	0.00000E+000	1.90996E-001	0.00000E+000	9	...........	1467.52
	310	6.22	1.89986E-001	-1.47147E-006	0.00000E+000	1.89997E-001	0.00000E+000	9	...........	1467.52
	311	6.24	1.88990E-001	-1.49445E-006	0.00000E+000	1.88997E-001	0.00000E+000	9	...........	1467.52
	312	6.26	1.87993E-001	-1.52249E-006	0.00000E+000	1.87997E-001	0.00000E+000	9	...........	1467.52
	313	6.28	1.86997E-001	-1.54266E-006	0.00000E+000	1.86998E-001	0.00000E+000	9	...........	1467.52
	314	6.3	1.86000E-001	-1.55860E-006	0.00000E+000	1.85998E-001	0.00000E+000	9	...........	1467.52
	315	6.32	1.84994E-001	-1.59140E-006	0.00000E+000	1.84998E-001	0.00000E+000	9	...........	1467.52
	316	6.34	1.83998E-001	-1.61043E-006	0.00000E+000	1.83999E-001	0.00000E+000	9	...........	1467.60
	317	6.36	1.82998E-001	-1.64081E-006	0.00000E+000	1.82999E-001	0.00000E+000	9	...........	1467.70
	318	6.38	1.82000E-001	-1.66287E-006	0.00000E+000	1.81999E-001	0.00000E+000	9	...........	1467.70
	319	6.4	1.81001E-001	-1.68841E-006	0.00000E+000	1.81000E-001	0.00000E+000	9	...........	1467.70
	320	6.42	1.79986E-001	-1.71370E-006	0.00000E+000	1.80000E-001	0.00000E+000	9	...........	1467.70
	321	6.44	1.78978E-001	-1.73217E-006	0.00000E+000	1.79000E-001	0.00000E+000	9	...........	1467.70
	322	6.46	1.77987E-001	-1.75740E-006	0.00000E+000	1.78001E-001	0.00000E+000	9	...........	1467.70
	323	6.48	1.76988E-001	-1.78005E-006	0.00000E+000	1.77001E-001	0.00000E+000	9	...........	1467.70
	324	6.5	1.76002E-001	-1.80383E-006	0.00000E+000	1.76002E-001	0.00000E+000	9	...........	1467.70
	325	6.52	1.74993E-001	-1.83115E-006	0.00000E+000	1.75002E-001	0.00000E+000	9	...........	1467.70
	326	6.54	1.73999E-001	-1.85725E-006	0.00000E+000	1.74002E-001	0.00000E+000	9	...........	1467.70
	327	6.56	1.73002E-001	-1.87950E-006	0.00000E+000	1.73003E-001	0.00000E+000	9	...........	1467.70
	328	6.58	1.72001E-001	-1.90385E-006	0.00000E+000	1.72003E-001	0.00000E+000	9	...........	1467.70
	329	6.6	1.71000E-001	-1.92802E-006	0.00000E+000	1.71003E-001	0.00000E+000	9	...........	1467.70
	330	6.62	1.70008E-001	-1.95395E-006	0.00000E+000	1.70004E-001	0.00000E+000	9	...........	1467.70
	331	6.64	1.69008E-001	-1.97228E-006	0.00000E+000	1.69004E-001	0.00000E+000	9	...........	1467.70
	332	6.66	1.68016E-001	-1.99615E-006	0.00000E+000	1.68004E-001	0.00000E+000	9	...........	1467.70
	333	6.68	1.67014E-001	-2.02094E-006	0.00000E+000	1.67005E-001	0.00000E+000	9	...........	1467.70
	334	6.7	1.65982E-001	-2.04328E-006	0.00000E+000	1.66005E-001	0.00000E+000	9	...........	1467.70
	335	6.72	1.64990E-001	-2.06960E-006	0.00000E+000	1.65005E-001	0.00000E+000	9	...........	1467.70
	336	6.74	1.64005E-001	-2.09224E-006	0.00000E+000	1.64006E-001	0.00000E+000	9	...........	1467.70
	337	6.76	1.62992E-001	-2.11656E-006	0.00000E+000	1.63006E-001	0.00000E+000	9	...........	1467.70
	338	6.78	1.61987E-001	-2.15122E-006	0.00000E+000	1.61994E-001	0.00000E+000	9	...........	1467.70
	339	6.8	1.60987E-001	-2.16922E-006	0.00000E+000	1.60994E-001	0.00000E+000	9	...........	1467.70
	340	6.82	1.59994E-001	-2.19301E-006	0.00000E+000	1.59995E-001	0.00000E+000	9	...........	1467.70
	341	6.84	1.58987E-001	-2.21704E-006	0.00000E+000	1.58995E-001	0.00000E+000	9	...........	1467.70
	342	6.86	1.58006E-001	-2.24350E-006	0.00000E+000	1.57995E-001	0.00000E+000	9	...........	1467.70
	343	6.88	1.57007E-001	-2.26244E-006	0.00000E+000	1.56996E-001	0.00000E+000	9	...........	1467.70
	344	6.9	1.56000E-001	-2.29396E-006	0.00000E+000	1.55996E-001	0.00000E+000	9	...........	1467.70
	345	6.92	1.55006E-001	-2.31572E-006	0.00000E+000	1.54996E-001	0.00000E+000	9	...........	1467.70
	346	6.94	1.53998E-001	-2.33041E-006	0.00000E+000	1.53997E-001	0.00000E+000	9	...........	1467.70
	347	6.96	1.52983E-001	-2.36324E-006	0.00000E+000	1.52997E-001	0.00000E+000	9	...........	1467.70
	348	6.98	1.51987E-001	-2.38343E-006	0.00000E+000	1.51997E-001	0.00000E+000	9	...........	1467.70
	349	7	1.50984E-001	-2.41075E-006	0.00000E+000	1.50998E-001	0.00000E+000	9	...........	1467.70
	350	7.02	1.49988E-001	-2.42908E-006	0.00000E+000	1.49998E-001	0.00000E+000	9	...........	1467.70
	351	7.04	1.48991E-001	-2.45610E-006	0.00000E+000	1.48998E-001	0.00000E+000	9	...........	1467.70
	352	7.06	1.48002E-001	-2.47604E-006	0.00000E+000	1.47999E-001	0.00000E+000	9	...........	1467.70
	353	7.08	1.47003E-001	-2.50289E-006	0.00000E+000	1.46999E-001	0.00000E+000	9	...........	1467.70
	354	7.1	1.45993E-001	-2.53110E-006	0.00000E+000	1.46000E-001	0.00000E+000	9	...........	1467.70
	355	7.12	1.44992E-001	-2.55444E-006	0.00000E+000	1.45000E-001	0.00000E+000	9	...........	1467.70
	356	7.14	1.43996E-001	-2.57770E-006	0.00000E+000	1.44000E-001	0.00000E+000	9	...........	1467.70
	357	7.16	1.43002E-001	-2.60271E-006	0.00000E+000	1.43001E-001	0.00000E+000	9	...........	1467.70
	358	7.18	1.42006E-001	-2.62051E-006	0.00000E+000	1.42001E-001	0.00000E+000	9	...........	1467.70
	359	7.2	1.41010E-001	-2.64694E-006	0.00000E+000	1.41001E-001	0.00000E+000	9	...........	1467.70
	360	7.22	1.39987E-001	-2.67515E-006	0.00000E+000	1.40002E-001	0.00000E+000	9	...........	1467.70
	361	7.24	1.38995E-001	-2.69902E-006	0.00000E+000	1.39002E-001	0.00000E+000	9	...........	1467.70
	362	7.26	1.37999E-001	-2.72281E-006	0.00000E+000	1.38002E-001	0.00000E+000	9	...........	1467.70
	363	7.28	1.36996E-001	-2.74328E-006	0.00000E+000	1.37003E-001	0.00000E+000	9	...........	1467.70
	364	7.3	1.36001E-001	-2.76807E-006	0.00000E+000	1.36003E-001	0.00000E+000	9	...........	1467.70
	365	7.32	1.35006E-001	-2.79336E-006	0.00000E+000	1.35003E-001	0.00000E+000	9	...........	1467.70
	366	7.34	1.34011E-001	-2.82168E-006	0.00000E+000	1.34004E-001	0.00000E+000	9	...........	1467.62
	367	7.36	1.33018E-001	-2.84808E-006	0.00000E+000	1.33004E-001	0.00000E+000	9	...........	1467.52
	368	7.38	1.32019E-001	-2.86725E-006	0.00000E+000	1.32004E-001	0.00000E+000	9	...........	1467.52
	369	7.4	1.31020E-001	-2.89390E-006	0.00000E+000	1.31005E-001	0.00000E+000	9	...........	1467.52
	370	7.42	1.30014E-001	-2.92453E-006	0.00000E+000	1.30005E-001	0.00000E+000	9	...........	1467.52
	371	7.44	1.29018E-001	-2.93961E-006	0.00000E+000	1.29005E-001	0.00000E+000	9	...........	1467.52
	372	7.46	1.28020E-001	-2.97110E-006	0.00000E+000	1.28006E-001	0.00000E+000	9	...........	1467.52
	373	7.48	1.27005E-001	-2.98999E-006	0.00000E+000	1.27006E-001	0.00000E+000	9	...........	1467.52
	374	7.5	1.25990E-001	-3.02423E-006	0.00000E+000	1.25994E-001	0.00000E+000	9	...........	1467.52
	375	7.52	1.24996E-001	-3.03297E-006	0.00000E+000	1.24994E-001	0.00000E+000	9	...........	1467.52
	376	7.54	1.23991E-001	-3.05834E-006	0.00000E+000	1.23995E-001	0.00000E+000	9	...........	1467.52
	377	7.56	1.22992E-001	-3.08366E-006	0.00000E+000	1.22995E-001	0.00000E+000	9	...........	1467.52
	378	7.58	1.22007E-001	-3.10884E-006	0.00000E+000	1.21995E-001	0.00000E+000	9	...........	1467.52
	379	7.6	1.21002E-001	-3.12803E-006	0.00000E+000	1.20996E-001	0.00000E+000	9	...........	1467.52
	380	7.62	1.20006E-001	-3.15301E-006	0.00000E+000	1.19996E-001	0.00000E+000	9	...........	1467.52
	381	7.64	1.19004E-001	-3.18267E-006	0.00000E+000	1.18996E-001	0.00000E+000	9	...........	1467.52
	382	7.66	1.17998E-001	-3.20476E-006	0.00000E+000	1.17997E-001	0.00000E+000	9	...........	1467.52
	383	7.68	1.17005E-001	-3.23188E-006	0.00000E+000	1.16997E-001	0.00000E+000	9	...........	1467.52
	384	7.7	1.16016E-001	-3.25884E-006	0.00000E+000	1.15997E-001	0.00000E+000	9	...........	1467.52
	385	7.72	1.15005E-001	-3.27790E-006	0.00000E+000	1.14998E-001	0.00000E+000	9	...........	1467.52
	386	7.74	1.13990E-001	-3.30805E-006	0.00000E+000	1.13998E-001	0.00000E+000	9	...........	1467.52
	387	7.76	1.12989E-001	-3.33095E-006	0.00000E+000	1.12999E-001	0.00000E+000	9	...........	1467.52
[...]
	1003	20.08	2.96992E-001	1.67320E-006	0.00000E+000	2.96997E-001	0.00000E+000	9	...........	1467.52
	1004	20.1	2.96004E-001	1.56601E-006	0.00000E+000	2.95997E-001	0.00000E+000	9	...........	1467.52
	1005	20.12	2.95011E-001	1.48069E-006	0.00000E+000	2.94998E-001	0.00000E+000	9	...........	1467.52
	1006	20.14	2.93983E-001	1.39818E-006	0.00000E+000	2.93998E-001	0.00000E+000	9	...........	1467.52
	1007	20.16	2.92988E-001	1.33347E-006	0.00000E+000	2.92998E-001	0.00000E+000	9	...........	1467.52
	1008	20.18	2.91990E-001	1.26244E-006	0.00000E+000	2.91999E-001	0.00000E+000	9	...........	1467.52
	1009	20.2	2.90982E-001	1.20252E-006	0.00000E+000	2.90999E-001	0.00000E+000	9	...........	1467.52
	1010	20.22	2.89995E-001	1.14318E-006	0.00000E+000	2.89999E-001	0.00000E+000	9	...........	1467.52
	1011	20.24	2.89000E-001	1.08684E-006	0.00000E+000	2.89000E-001	0.00000E+000	9	...........	1467.52
	1012	20.26	2.88018E-001	1.03755E-006	0.00000E+000	2.88000E-001	0.00000E+000	9	...........	1467.52
	1013	20.28	2.87005E-001	9.91061E-007	0.00000E+000	2.87000E-001	0.00000E+000	9	...........	1467.52
	1014	20.3	2.85996E-001	9.38481E-007	0.00000E+000	2.86001E-001	0.00000E+000	9	...........	1467.52
	1015	20.32	2.85001E-001	8.95833E-007	0.00000E+000	2.85001E-001	0.00000E+000	9	...........	1467.52
	1016	20.34	2.84007E-001	8.49875E-007	0.00000E+000	2.84001E-001	0.00000E+000	9	...........	1467.70
	1017	20.36	2.82995E-001	8.12986E-007	0.00000E+000	2.83002E-001	0.00000E+000	9	...........	1467.70
	1018	20.38	2.81998E-001	7.71812E-007	0.00000E+000	2.82002E-001	0.00000E+000	9	...........	1467.70
	1019	20.4	2.80983E-001	7.37705E-007	0.00000E+000	2.81002E-001	0.00000E+000	9	...........	1467.70
	1020	20.42	2.79985E-001	6.92971E-007	0.00000E+000	2.80003E-001	0.00000E+000	9	...........	1467.70
	1021	20.44	2.78986E-001	6.59921E-007	0.00000E+000	2.79003E-001	0.00000E+000	9	...........	1467.70
	1022	20.46	2.77994E-001	6.23505E-007	0.00000E+000	2.78003E-001	0.00000E+000	9	...........	1467.70
	1023	20.48	2.76997E-001	5.84835E-007	0.00000E+000	2.77004E-001	0.00000E+000	9	...........	1467.70
	1024	20.5	2.76001E-001	5.51507E-007	0.00000E+000	2.76004E-001	0.00000E+000	9	...........	1467.70
	1025	20.52	2.74991E-001	5.27359E-007	0.00000E+000	2.75004E-001	0.00000E+000	9	...........	1467.70
	1026	20.54	2.73992E-001	4.87466E-007	0.00000E+000	2.74005E-001	0.00000E+000	9	...........	1467.70
	1027	20.56	2.72992E-001	4.56892E-007	0.00000E+000	2.73005E-001	0.00000E+000	9	...........	1467.70
	1028	20.58	2.71998E-001	4.24036E-007	0.00000E+000	2.72006E-001	0.00000E+000	9	...........	1467.70
	1029	20.6	2.71009E-001	3.94714E-007	0.00000E+000	2.71006E-001	0.00000E+000	9	...........	1467.70
	1030	20.62	2.69997E-001	3.54403E-007	0.00000E+000	2.69994E-001	0.00000E+000	9	...........	1467.70
	1031	20.64	2.69008E-001	3.34985E-007	0.00000E+000	2.68994E-001	0.00000E+000	9	...........	1467.70
	1032	20.66	2.67973E-001	3.03994E-007	0.00000E+000	2.67994E-001	0.00000E+000	9	...........	1467.70
	1033	20.68	2.66973E-001	2.74421E-007	0.00000E+000	2.66995E-001	0.00000E+000	9	...........	1467.70
	1034	20.7	2.65982E-001	2.52249E-007	0.00000E+000	2.65995E-001	0.00000E+000	9	...........	1467.70
	1035	20.72	2.64983E-001	2.19672E-007	0.00000E+000	2.64995E-001	0.00000E+000	9	...........	1467.70
	1036	20.74	2.63985E-001	1.90489E-007	0.00000E+000	2.63996E-001	0.00000E+000	9	...........	1467.70
	1037	20.76	2.62993E-001	1.65423E-007	0.00000E+000	2.62996E-001	0.00000E+000	9	...........	1467.70
	1038	20.78	2.61985E-001	1.37186E-007	0.00000E+000	2.61997E-001	0.00000E+000	9	...........	1467.70
	1039	20.8	2.60987E-001	1.11898E-007	0.00000E+000	2.60997E-001	0.00000E+000	9	...........	1467.70
	1040	20.82	2.59989E-001	8.80281E-008	0.00000E+000	2.59997E-001	0.00000E+000	9	...........	1467.70
	1041	20.84	2.58989E-001	6.32128E-008	0.00000E+000	2.58998E-001	0.00000E+000	9	...........	1467.70
	1042	20.86	2.57990E-001	4.01502E-008	0.00000E+000	2.57998E-001	0.00000E+000	9	...........	1467.70
	1043	20.88	2.56999E-001	1.41942E-008	0.00000E+000	2.56998E-001	0.00000E+000	9	...........	1467.70
	1044	20.9	2.55995E-001	-1.09828E-008	0.00000E+000	2.55999E-001	0.00000E+000	9	...........	1467.70
	1045	20.92	2.54981E-001	-4.24748E-008	0.00000E+000	2.54999E-001	0.00000E+000	9	...........	1467.70
	1046	20.94	2.53976E-001	-6.27277E-008	0.00000E+000	2.53999E-001	0.00000E+000	9	...........	1467.70
	1047	20.96	2.52978E-001	-9.17994E-008	0.00000E+000	2.53000E-001	0.00000E+000	9	...........	1467.70
	1048	20.98	2.51985E-001	-1.11051E-007	0.00000E+000	2.52000E-001	0.00000E+000	9	...........	1467.70
	1049	21	2.50987E-001	-1.35087E-007	0.00000E+000	2.51000E-001	0.00000E+000	9	...........	1467.70
	1050	21.02	2.49995E-001	-1.63547E-007	0.00000E+000	2.50001E-001	0.00000E+000	9	...........	1467.70
	1051	21.04	2.48990E-001	-1.81073E-007	0.00000E+000	2.49001E-001	0.00000E+000	9	...........	1467.70
	1052	21.06	2.47999E-001	-2.06862E-007	0.00000E+000	2.48001E-001	0.00000E+000	9	...........	1467.70
	1053	21.08	2.46998E-001	-2.31233E-007	0.00000E+000	2.47002E-001	0.00000E+000	9	...........	1467.70
	1054	21.1	2.46007E-001	-2.55714E-007	0.00000E+000	2.46002E-001	0.00000E+000	9	...........	1467.70
	1055	21.12	2.45014E-001	-2.79862E-007	0.00000E+000	2.45002E-001	0.00000E+000	9	...........	1467.70
	1056	21.14	2.44017E-001	-2.96971E-007	0.00000E+000	2.44003E-001	0.00000E+000	9	...........	1467.70
	1057	21.16	2.43013E-001	-3.23734E-007	0.00000E+000	2.43003E-001	0.00000E+000	9	...........	1467.70
	1058	21.18	2.42001E-001	-3.43041E-007	0.00000E+000	2.42004E-001	0.00000E+000	9	...........	1467.70
	1059	21.2	2.41000E-001	-3.62793E-007	0.00000E+000	2.41004E-001	0.00000E+000	9	...........	1467.70
	1060	21.22	2.40011E-001	-3.88081E-007	0.00000E+000	2.40004E-001	0.00000E+000	9	...........	1467.70
	1061	21.24	2.38995E-001	-4.16346E-007	0.00000E+000	2.39005E-001	0.00000E+000	9	...........	1467.70
	1062	21.26	2.37993E-001	-4.39436E-007	0.00000E+000	2.38005E-001	0.00000E+000	9	...........	1467.70
	1063	21.28	2.36996E-001	-4.58076E-007	0.00000E+000	2.37005E-001	0.00000E+000	9	...........	1467.70
	1064	21.3	2.35984E-001	-4.81417E-007	0.00000E+000	2.36006E-001	0.00000E+000	9	...........	1467.70
	1065	21.32	2.34992E-001	-5.07428E-007	0.00000E+000	2.35006E-001	0.00000E+000	9	...........	1467.70
	1066	21.34	2.33990E-001	-5.33857E-007	0.00000E+000	2.33994E-001	0.00000E+000	9	...........	1467.52
	1067	21.36	2.32986E-001	-5.49909E-007	0.00000E+000	2.32994E-001	0.00000E+000	9	...........	1467.52
	1068	21.38	2.31991E-001	-5.76644E-007	0.00000E+000	2.31994E-001	0.00000E+000	9	...........	1467.52
	1069	21.4	2.30991E-001	-5.97870E-007	0.00000E+000	2.30995E-001	0.00000E+000	9	...........	1467.52
	1070	21.42	2.29976E-001	-6.21935E-007	0.00000E+000	2.29995E-001	0.00000E+000	9	...........	1467.52
	1071	21.44	2.28979E-001	-6.45081E-007	0.00000E+000	2.28996E-001	0.00000E+000	9	...........	1467.52
	1072	21.46	2.27978E-001	-6.65695E-007	0.00000E+000	2.27996E-001	0.00000E+000	9	...........	1467.52
	1073	21.48	2.26973E-001	-6.88202E-007	0.00000E+000	2.26996E-001	0.00000E+000	9	...........	1467.52
	1074	21.5	2.25972E-001	-7.10096E-007	0.00000E+000	2.25997E-001	0.00000E+000	9	...........	1467.52
	1075	21.52	2.24975E-001	-7.37943E-007	0.00000E+000	2.24997E-001	0.00000E+000	9	...........	1467.52
	1076	21.54	2.23995E-001	-7.50768E-007	0.00000E+000	2.23997E-001	0.00000E+000	9	...........	1467.52
	1077	21.56	2.22989E-001	-7.79228E-007	0.00000E+000	2.22998E-001	0.00000E+000	9	...........	1467.52
	1078	21.58	2.21996E-001	-8.01289E-007	0.00000E+000	2.21998E-001	0.00000E+000	9	...........	1467.52
	1079	21.6	2.21000E-001	-8.20541E-007	0.00000E+000	2.20998E-001	0.00000E+000	9	...........	1467.52
	1080	21.62	2.19997E-001	-8.42463E-007	0.00000E+000	2.19999E-001	0.00000E+000	9	...........	1467.52
	1081	21.64	2.18999E-001	-8.70477E-007	0.00000E+000	2.18999E-001	0.00000E+000	9	...........	1467.52
	1082	21.66	2.18013E-001	-8.92817E-007	0.00000E+000	2.17999E-001	0.00000E+000	9	...........	1467.52
	1083	21.68	2.16988E-001	-9.13876E-007	0.00000E+000	2.17000E-001	0.00000E+000	9	...........	1467.52
	1084	21.7	2.15982E-001	-9.33767E-007	0.00000E+000	2.16000E-001	0.00000E+000	9	...........	1467.52
	1085	21.72	2.14985E-001	-9.55105E-007	0.00000E+000	2.15000E-001	0.00000E+000	9	...........	1467.52
	1086	21.74	2.13978E-001	-9.80588E-007	0.00000E+000	2.14001E-001	0.00000E+000	9	...........	1467.52
	1087	21.76	2.12983E-001	-9.99311E-007	0.00000E+000	2.13001E-001	0.00000E+000	9	...........	1467.52
	1088	21.78	2.11996E-001	-1.02006E-006	0.00000E+000	2.12001E-001	0.00000E+000	9	...........	1467.52
	1089	21.8	2.10991E-001	-1.04290E-006	0.00000E+000	2.11002E-001	0.00000E+000	9	...........	1467.52
	1090	21.82	2.09992E-001	-1.06641E-006	0.00000E+000	2.10002E-001	0.00000E+000	9	...........	1467.52
	1091	21.84	2.09001E-001	-1.08731E-006	0.00000E+000	2.09003E-001	0.00000E+000	9	...........	1467.52
	1092	21.86	2.08002E-001	-1.10681E-006	0.00000E+000	2.08003E-001	0.00000E+000	9	...........	1467.52
	1093	21.88	2.06997E-001	-1.13468E-006	0.00000E+000	2.07003E-001	0.00000E+000	9	...........	1467.52
	1094	21.9	2.06013E-001	-1.15541E-006	0.00000E+000	2.06004E-001	0.00000E+000	9	...........	1467.52
	1095	21.92	2.05016E-001	-1.17633E-006	0.00000E+000	2.05004E-001	0.00000E+000	9	...........	1467.52
	1096	21.94	2.04001E-001	-1.20189E-006	0.00000E+000	2.04004E-001	0.00000E+000	9	...........	1467.52
	1097	21.96	2.03002E-001	-1.22295E-006	0.00000E+000	2.03005E-001	0.00000E+000	9	...........	1467.52
	1098	21.98	2.02006E-001	-1.24805E-006	0.00000E+000	2.02005E-001	0.00000E+000	9	...........	1467.52
	1099	22	2.01000E-001	-1.27150E-006	0.00000E+000	2.01005E-001	0.00000E+000	9	...........	1467.52
	1100	22.02	2.00007E-001	-1.29114E-006	0.00000E+000	2.00006E-001	0.00000E+000	9	...........	1467.52
	1101	22.04	1.99013E-001	-1.31682E-006	0.00000E+000	1.99006E-001	0.00000E+000	9	...........	1467.52
	1102	22.06	1.97991E-001	-1.34940E-006	0.00000E+000	1.97994E-001	0.00000E+000	9	...........	1467.52
	1103	22.08	1.96996E-001	-1.36144E-006	0.00000E+000	1.96994E-001	0.00000E+000	9	...........	1467.52
	1104	22.1	1.95997E-001	-1.38840E-006	0.00000E+000	1.95995E-001	0.00000E+000	9	...........	1467.52
	1105	22.12	1.94991E-001	-1.40940E-006	0.00000E+000	1.94995E-001	0.00000E+000	9	...........	1467.52
	1106	22.14	1.93998E-001	-1.43046E-006	0.00000E+000	1.93995E-001	0.00000E+000	9	...........	1467.52
	1107	22.16	1.93007E-001	-1.44988E-006	0.00000E+000	1.92996E-001	0.00000E+000	9	...........	1467.52
	1108	22.18	1.92016E-001	-1.47280E-006	0.00000E+000	1.91996E-001	0.00000E+000	9	...........	1467.52
	1109	22.2	1.90977E-001	-1.50232E-006	0.00000E+000	1.90996E-001	0.00000E+000	9	...........	1467.52
	1110	22.22	1.89980E-001	-1.52285E-006	0.00000E+000	1.89997E-001	0.00000E+000	9	...........	1467.52
	1111	22.24	1.88984E-001	-1.55090E-006	0.00000E+000	1.88997E-001	0.00000E+000	9	...........	1467.52
	1112	22.26	1.87985E-001	-1.57335E-006	0.00000E+000	1.87997E-001	0.00000E+000	9	...........	1467.52
	1113	22.28	1.86991E-001	-1.59908E-006	0.00000E+000	1.86998E-001	0.00000E+000	9	...........	1467.52
	1114	22.3	1.85995E-001	-1.62120E-006	0.00000E+000	1.85998E-001	0.00000E+000	9	...........	1467.52
	1115	22.32	1.84987E-001	-1.64120E-006	0.00000E+000	1.84998E-001	0.00000E+000	9	...........	1467.51
	1116	22.34	1.84002E-001	-1.66298E-006	0.00000E+000	1.83999E-001	0.00000E+000	9	...........	1467.43
	1117	22.36	1.83000E-001	-1.69097E-006	0.00000E+000	1.82999E-001	0.00000E+000	9	...........	1467.43
	1118	22.38	1.82007E-001	-1.71456E-006	0.00000E+000	1.81999E-001	0.00000E+000	9	...........	1467.43
	1119	22.4	1.81010E-001	-1.73267E-006	0.00000E+000	1.81000E-001	0.00000E+000	9	...........	1467.43
	1120	22.42	1.79999E-001	-1.76561E-006	0.00000E+000	1.80000E-001	0.00000E+000	9	...........	1467.43
	1121	22.44	1.78982E-001	-1.78135E-006	0.00000E+000	1.79000E-001	0.00000E+000	9	...........	1467.43
	1122	22.46	1.77990E-001	-1.81096E-006	0.00000E+000	1.78001E-001	0.00000E+000	9	...........	1467.43
	1123	22.48	1.76994E-001	-1.82773E-006	0.00000E+000	1.77001E-001	0.00000E+000	9	...........	1467.43
	1124	22.5	1.76010E-001	-1.85374E-006	0.00000E+000	1.76002E-001	0.00000E+000	9	...........	1467.43
	1125	22.52	1.74999E-001	-1.88248E-006	0.00000E+000	1.75002E-001	0.00000E+000	9	...........	1467.43
	1126	22.54	1.74001E-001	-1.90780E-006	0.00000E+000	1.74002E-001	0.00000E+000	9	...........	1467.43
	1127	22.56	1.73008E-001	-1.92730E-006	0.00000E+000	1.73003E-001	0.00000E+000	9	...........	1467.43
	1128	22.58	1.72000E-001	-1.95492E-006	0.00000E+000	1.72003E-001	0.00000E+000	9	...........	1467.43
	1129	22.6	1.70996E-001	-1.97988E-006	0.00000E+000	1.71003E-001	0.00000E+000	9	...........	1467.43
	1130	22.62	1.70007E-001	-2.00589E-006	0.00000E+000	1.70004E-001	0.00000E+000	9	...........	1467.43
	1131	22.64	1.69007E-001	-2.02464E-006	0.00000E+000	1.69004E-001	0.00000E+000	9	...........	1467.43
	1132	22.66	1.68010E-001	-2.05399E-006	0.00000E+000	1.68004E-001	0.00000E+000	9	...........	1467.43
	1133	22.68	1.67012E-001	-2.07878E-006	0.00000E+000	1.67005E-001	0.00000E+000	9	...........	1467.43
	1134	22.7	1.65979E-001	-2.10000E-006	0.00000E+000	1.66005E-001	0.00000E+000	9	...........	1467.43
	1135	22.72	1.64984E-001	-2.12298E-006	0.00000E+000	1.65005E-001	0.00000E+000	9	...........	1467.43
	1136	22.74	1.63993E-001	-2.14788E-006	0.00000E+000	1.64006E-001	0.00000E+000	9	...........	1467.43
	1137	22.76	1.62991E-001	-2.17000E-006	0.00000E+000	1.63006E-001	0.00000E+000	9	...........	1467.43
	1138	22.78	1.61980E-001	-2.20708E-006	0.00000E+000	1.61994E-001	0.00000E+000	9	...........	1467.43
	1139	22.8	1.60988E-001	-2.21871E-006	0.00000E+000	1.60994E-001	0.00000E+000	9	...........	1467.43
	1140	22.82	1.59988E-001	-2.24297E-006	0.00000E+000	1.59995E-001	0.00000E+000	9	...........	1467.43
	1141	22.84	1.58978E-001	-2.26620E-006	0.00000E+000	1.58995E-001	0.00000E+000	9	...........	1467.43
	1142	22.86	1.57994E-001	-2.28923E-006	0.00000E+000	1.57995E-001	0.00000E+000	9	...........	1467.43
	1143	22.88	1.57001E-001	-2.31525E-006	0.00000E+000	1.56996E-001	0.00000E+000	9	...........	1467.43
	1144	22.9	1.55999E-001	-2.33544E-006	0.00000E+000	1.55996E-001	0.00000E+000	9	...........	1467.43
	1145	22.92	1.55000E-001	-2.35775E-006	0.00000E+000	1.54996E-001	0.00000E+000	9	...........	1467.43
	1146	22.94	1.53992E-001	-2.38123E-006	0.00000E+000	1.53997E-001	0.00000E+000	9	...........	1467.43
	1147	22.96	1.52986E-001	-2.40908E-006	0.00000E+000	1.52997E-001	0.00000E+000	9	...........	1467.43
	1148	22.98	1.51988E-001	-2.43493E-006	0.00000E+000	1.51997E-001	0.00000E+000	9	...........	1467.43
	1149	23	1.50991E-001	-2.45813E-006	0.00000E+000	1.50998E-001	0.00000E+000	9	...........	1467.43
	1150	23.02	1.49993E-001	-2.48253E-006	0.00000E+000	1.49998E-001	0.00000E+000	9	...........	1467.43
	1151	23.04	1.48997E-001	-2.50834E-006	0.00000E+000	1.48998E-001	0.00000E+000	9	...........	1467.43
	1152	23.06	1.48010E-001	-2.53071E-006	0.00000E+000	1.47999E-001	0.00000E+000	9	...........	1467.43
	1153	23.08	1.47005E-001	-2.55305E-006	0.00000E+000	1.46999E-001	0.00000E+000	9	...........	1467.43
	1154	23.1	1.46001E-001	-2.58073E-006	0.00000E+000	1.46000E-001	0.00000E+000	9	...........	1467.43
	1155	23.12	1.45000E-001	-2.60218E-006	0.00000E+000	1.45000E-001	0.00000E+000	9	...........	1467.43
	1156	23.14	1.43993E-001	-2.62883E-006	0.00000E+000	1.44000E-001	0.00000E+000	9	...........	1467.43
	1157	23.16	1.42996E-001	-2.64722E-006	0.00000E+000	1.43001E-001	0.00000E+000	9	...........	1467.43
	1158	23.18	1.42003E-001	-2.67418E-006	0.00000E+000	1.42001E-001	0.00000E+000	9	...........	1467.43
	1159	23.2	1.41018E-001	-2.69746E-006	0.00000E+000	1.41001E-001	0.00000E+000	9	...........	1467.43
	1160	23.22	1.39992E-001	-2.71819E-006	0.00000E+000	1.40002E-001	0.00000E+000	9	...........	1467.43
	1161	23.24	1.38996E-001	-2.74612E-006	0.00000E+000	1.39002E-001	0.00000E+000	9	...........	1467.43
	1162	23.26	1.38000E-001	-2.76868E-006	0.00000E+000	1.38002E-001	0.00000E+000	9	...........	1467.43
	1163	23.28	1.36998E-001	-2.79533E-006	0.00000E+000	1.37003E-001	0.00000E+000	9	...........	1467.43
	1164	23.3	1.35997E-001	-2.81762E-006	0.00000E+000	1.36003E-001	0.00000E+000	9	...........	1467.43
	1165	23.32	1.35006E-001	-2.83912E-006	0.00000E+000	1.35003E-001	0.00000E+000	9	...........	1467.45
	1166	23.34	1.34006E-001	-2.85770E-006	0.00000E+000	1.34004E-001	0.00000E+000	9	...........	1467.61
	1167	23.36	1.33016E-001	-2.88820E-006	0.00000E+000	1.33004E-001	0.00000E+000	9	...........	1467.61
	1168	23.38	1.32021E-001	-2.90884E-006	0.00000E+000	1.32004E-001	0.00000E+000	9	...........	1467.61
	1169	23.4	1.31016E-001	-2.93418E-006	0.00000E+000	1.31005E-001	0.00000E+000	9	...........	1467.61
	1170	23.42	1.30009E-001	-2.95883E-006	0.00000E+000	1.30005E-001	0.00000E+000	9	...........	1467.61
	1171	23.44	1.29013E-001	-2.98142E-006	0.00000E+000	1.29005E-001	0.00000E+000	9	...........	1467.61
	1172	23.46	1.28003E-001	-3.00529E-006	0.00000E+000	1.28006E-001	0.00000E+000	9	...........	1467.61
	1173	23.48	1.26997E-001	-3.02691E-006	0.00000E+000	1.27006E-001	0.00000E+000	9	...........	1467.61
	1174	23.5	1.25981E-001	-3.06947E-006	0.00000E+000	1.25994E-001	0.00000E+000	9	...........	1467.61
	1175	23.52	1.24985E-001	-3.08054E-006	0.00000E+000	1.24994E-001	0.00000E+000	9	...........	1467.61
	1176	23.54	1.23989E-001	-3.10054E-006	0.00000E+000	1.23995E-001	0.00000E+000	9	...........	1467.61
	1177	23.56	1.22985E-001	-3.12962E-006	0.00000E+000	1.22995E-001	0.00000E+000	9	...........	1467.61
	1178	23.58	1.21996E-001	-3.15426E-006	0.00000E+000	1.21995E-001	0.00000E+000	9	...........	1467.61
	1179	23.6	1.20994E-001	-3.17424E-006	0.00000E+000	1.20996E-001	0.00000E+000	9	...........	1467.61
	1180	23.62	1.19998E-001	-3.19964E-006	0.00000E+000	1.19996E-001	0.00000E+000	9	...........	1467.61
	1181	23.64	1.18998E-001	-3.22518E-006	0.00000E+000	1.18996E-001	0.00000E+000	9	...........	1467.61
	1182	23.66	1.17993E-001	-3.25180E-006	0.00000E+000	1.17997E-001	0.00000E+000	9	...........	1467.61
	1183	23.68	1.16998E-001	-3.27517E-006	0.00000E+000	1.16997E-001	0.00000E+000	9	...........	1467.61
	1184	23.7	1.16015E-001	-3.29693E-006	0.00000E+000	1.15997E-001	0.00000E+000	9	...........	1467.61
	1185	23.72	1.15003E-001	-3.32352E-006	0.00000E+000	1.14998E-001	0.00000E+000	9	...........	1467.61
	1186	23.74	1.13980E-001	-3.35123E-006	0.00000E+000	1.13998E-001	0.00000E+000	9	...........	1467.61
	1187	23.76	1.12983E-001	-3.37963E-006	0.00000E+000	1.12999E-001	0.00000E+000	9	...........	1467.61
	1188	23.78	1.11986E-001	-3.40175E-006	0.00000E+000	1.11999E-001	0.00000E+000	9	...........	1467.61
	1189	23.8	1.10995E-001	-3.43349E-006	0.00000E+000	1.10999E-001	0.00000E+000	9	...........	1467.61
	1190	23.82	1.10001E-001	-3.45664E-006	0.00000E+000	1.10000E-001	0.00000E+000	9	...........	1467.61
	1191	23.84	1.09005E-001	-3.48463E-006	0.00000E+000	1.09000E-001	0.00000E+000	9	...........	1467.61
	1192	23.86	1.08007E-001	-3.51253E-006	0.00000E+000	1.08000E-001	0.00000E+000	9	...........	1467.61
	1193	23.88	1.07007E-001	-3.54132E-006	0.00000E+000	1.07001E-001	0.00000E+000	9	...........	1467.61
	1194	23.9	1.06006E-001	-3.56625E-006	0.00000E+000	1.06001E-001	0.00000E+000	9	...........	1467.61
	1195	23.92	1.05005E-001	-3.59368E-006	0.00000E+000	1.05001E-001	0.00000E+000	9	...........	1467.61
	1196	23.94	1.04015E-001	-3.61571E-006	0.00000E+000	1.04002E-001	0.00000E+000	9	...........	1467.61
	1197	23.96	1.03015E-001	-3.63727E-006	0.00000E+000	1.03002E-001	0.00000E+000	9	...........	1467.61
	1198	23.98	1.02002E-001	-3.66582E-006	0.00000E+000	1.02002E-001	0.00000E+000	9	...........	1467.61
	1199	24	1.01009E-001	-3.69355E-006	0.00000E+000	1.01003E-001	0.00000E+000	9	...........	1467.61
	1200	24.02	1.00007E-001	-3.72029E-006	0.00000E+000	1.00003E-001	0.00000E+000	9	...........	1467.61
CURVE4	TABLE
	Pt	T	Vf	Im	Vu	Sig	Ach	IERange	Over	Temp
	#	s	V vs. Ref.	A	V	V	V	#	bits	deg C
	1201	24.04	9.99980E-002	-2.93454E-006	0.00000E+000	1.00003E-001	0.00000E+000	9	...........	1467.61