File: input/ECSA_test/CV_ECSA_#2_#10.DTA
EXPLAIN
TAG	CV
TITLE	LABEL	ECSA	Test Identifier
DATE	LABEL	2/13/2024	Date
TIME	LABEL	12:05:55	Time
NOTES	NOTES	1	Notes...

PSTAT	PSTAT	IFC1010-36068	Potentiostat
VINIT	POTEN	1.00000E-001	F	Initial E (V)
VLIMIT1	POTEN	3.00000E-001	F	Scan Limit 1 (V)
VLIMIT2	POTEN	1.00000E-001	F	Scan Limit 2 (V)
VFINAL	POTEN	1.00000E-001	F	Final E (V)
SCANRATE	QUANT	9.99548E+001	A Real Number
STEPSIZE	QUANT	1.00000E+000	Step Size (mV)
CYCLES	IQUANT	3	Cycles (#)
IMODE	SELECTOR	1	I/E Range Mode
IRANGE	QUANT	3.00000E-001	Max Current (mA)
AREA	QUANT	1.00000E+000	Sample Area (cm^2)
EQDELAY	QUANT	0.00000E+000	Equil. Time (s)
IRCOMP	SELECTOR	0	IRComp
PFCOR	QUANT	5.00000E+001	PF Corr. (ohm)
SAMPLINGMODE	SELECTOR	2	Sampling Mode
EOC	QUANT	0.3246219	Open Circuit (V)
ELECTRODETYPE	SELECTOR	0	Electrode Type
STRIPPING	TOGGLE	F	Used for Stripping
SEQUENCER	TOGGLE	TRUE	Run as Sequence
PSTATMODEL	IQUANT	64	Pstat Model
PSTATSECTION	LABEL	IFC1010-36068	Pstat Section
PSTATSERIALNO	LABEL	36068	Pstat Serial Number
CTRLMODE	IQUANT	1	Control Mode
ELECTROMETER	IQUANT	0	RE=0 or CS=1
IESTAB	IQUANT	2	I/E Stability
CASPEED	IQUANT	4	Control Amp Speed
CONVENTION	IQUANT	1	Current Convention
ICHRANGE	IQUANT	2	Ich Range
ICHRANGEMODE	TOGGLE	F	Ich Auto Range
ICHOFFSETENABLE	TOGGLE	F	Ich Offset Enable
ICHOFFSET	QUANT	0	Ich Offset (V)
ICHFILTER	IQUANT	3	Ich Filter
VCHRANGE	IQUANT	2	Vch Range
VCHRANGEMODE	TOGGLE	F	Vch Auto Range
VCHOFFSETENABLE	TOGGLE	F	Vch Offset Enable
VCHOFFSET	QUANT	0	Vch Offset (V)
VCHFILTER	IQUANT	3	Vch Filter
IERANGELOWERLIMIT	IQUANT	4	I/E Range Lower Limit
IERANGEMODE	TOGGLE	F	I/E AutoRange
IERANGE	IQUANT	9	I/E Range
ACHSELECT	IQUANT	0	Ach Select
ACHRANGE	IQUANT	2	Ach Range
ACHOFFSETENABLE	TOGGLE	F	Ach Offset Enable
ACHOFFSET	QUANT	0	Ach Offset (V)
ACHFILTER	IQUANT	1	Ach Filter
SENSECABLEID	IQUANT	13	Sense Cable ID
PWRCABLEID	IQUANT	13	Power Cable ID
DCCALDATE	LABEL	8/11/2023	DC Calibration Date
ACCALDATE	LABEL	6/2/2023	AC Calibration Date
FRAMEWORKVERSION	LABEL	7.10.3	Framework Version
INSTRUMENTVERSION	LABEL	4.91	Instrument Version
COMMVERSION	LABEL	3.10	Communications Version
CPUPLDVERSION	LABEL	2.22	CPU PLD Version
CTRLPLDVERSION	LABEL	0.00	CTRL PLD Version
PSTATPLDVERSION	LABEL	0.00	PSTAT PLD Version
CURVE1	TABLE
	Pt	T	Vf	Im	Vu	Sig	Ach	IERange	Over	Temp
	#	s	V vs. Ref.	A	V	V	V	#	bits	deg C
	0	0.01	9.99933E-002	-3.40465E-006	0.00000E+000	1.00003E-001	0.00000E+000	9	...........	1467.61
	1	0.02	1.00968E-001	-1.90355E-006	0.00000E+000	1.01003E-001	0.00000E+000	9	...........	1467.61
	2	0.03	1.01967E-001	-1.68168E-006	0.00000E+000	1.02002E-001	0.00000E+000	9	...........	1467.61
	3	0.04	1.02983E-001	-1.58442E-006	0.00000E+000	1.03002E-001	0.00000E+000	9	...........	1467.61
	4	0.05	1.03985E-001	-1.42436E-006	0.00000E+000	1.04002E-001	0.00000E+000	9	...........	1467.61
	5	0.06	1.04969E-001	-1.35832E-006	0.00000E+000	1.05001E-001	0.00000E+000	9	...........	1467.61
	6	0.07	1.05971E-001	-1.22595E-006	0.00000E+000	1.06001E-001	0.00000E+000	9	...........	1467.61
	7	0.08	1.06966E-001	-1.17991E-006	0.00000E+000	1.07001E-001	0.00000E+000	9	...........	1467.61
	8	0.09	1.07962E-001	-1.04682E-006	0.00000E+000	1.08000E-001	0.00000E+000	9	...........	1467.61
	9	0.1	1.08967E-001	-1.00686E-006	0.00000E+000	1.09000E-001	0.00000E+000	9	...........	1467.61
	10	0.11	1.09964E-001	-8.95343E-007	0.00000E+000	1.10000E-001	0.00000E+000	9	...........	1467.61
	11	0.12	1.10965E-001	-8.66251E-007	0.00000E+000	1.10999E-001	0.00000E+000	9	...........	1467.61
	12	0.13	1.11957E-001	-7.51999E-007	0.00000E+000	1.11999E-001	0.00000E+000	9	...........	1467.61
	13	0.14	1.12958E-001	-7.25749E-007	0.00000E+000	1.12999E-001	0.00000E+000	9	...........	1467.61
	14	0.15	1.13953E-001	-6.18575E-007	0.00000E+000	1.13998E-001	0.00000E+000	9	...........	1467.61
	15	0.16	1.14964E-001	-6.01855E-007	0.00000E+000	1.14998E-001	0.00000E+000	9	...........	1467.61
	16	0.17	1.15976E-001	-4.96966E-007	0.00000E+000	1.15997E-001	0.00000E+000	9	...........	1467.61
	17	0.18	1.16969E-001	-4.79466E-007	0.00000E+000	1.16997E-001	0.00000E+000	9	...........	1467.61
	18	0.19	1.17964E-001	-3.80317E-007	0.00000E+000	1.17997E-001	0.00000E+000	9	...........	1467.61
	19	0.2	1.18964E-001	-3.65046E-007	0.00000E+000	1.18996E-001	0.00000E+000	9	...........	1467.61
	20	0.21	1.19963E-001	-2.70691E-007	0.00000E+000	1.19996E-001	0.00000E+000	9	...........	1467.61
	21	0.22	1.20967E-001	-2.56535E-007	0.00000E+000	1.20996E-001	0.00000E+000	9	...........	1467.61
	22	0.23	1.21972E-001	-1.62792E-007	0.00000E+000	1.21995E-001	0.00000E+000	9	...........	1467.61
	23	0.24	1.22964E-001	-1.60953E-007	0.00000E+000	1.22995E-001	0.00000E+000	9	...........	1467.61
	24	0.25	1.23956E-001	-6.34206E-008	0.00000E+000	1.23995E-001	0.00000E+000	9	...........	1467.61
	25	0.26	1.24958E-001	-6.07454E-008	0.00000E+000	1.24994E-001	0.00000E+000	9	...........	1467.61
	26	0.27	1.25951E-001	3.24955E-008	0.00000E+000	1.25994E-001	0.00000E+000	9	...........	1467.61
	27	0.28	1.26951E-001	3.89605E-008	0.00000E+000	1.26994E-001	0.00000E+000	9	...........	1467.62
	28	0.29	1.27964E-001	1.25569E-007	0.00000E+000	1.27993E-001	0.00000E+000	9	...........	1467.70
	29	0.3	1.28969E-001	1.26127E-007	0.00000E+000	1.28993E-001	0.00000E+000	9	...........	1467.70
	30	0.31	1.29970E-001	2.20649E-007	0.00000E+000	1.29993E-001	0.00000E+000	9	...........	1467.70
	31	0.32	1.30959E-001	1.95068E-007	0.00000E+000	1.30980E-001	0.00000E+000	9	...........	1467.70
	32	0.33	1.31961E-001	3.05363E-007	0.00000E+000	1.31979E-001	0.00000E+000	9	...........	1467.70
	33	0.34	1.32955E-001	3.00013E-007	0.00000E+000	1.32979E-001	0.00000E+000	9	...........	1467.70
	34	0.35	1.33946E-001	3.90634E-007	0.00000E+000	1.33979E-001	0.00000E+000	9	...........	1467.70
	35	0.36	1.34943E-001	3.88684E-007	0.00000E+000	1.34978E-001	0.00000E+000	9	...........	1467.70
	36	0.37	1.35942E-001	4.71670E-007	0.00000E+000	1.35978E-001	0.00000E+000	9	...........	1467.70
	37	0.38	1.36937E-001	4.67100E-007	0.00000E+000	1.36978E-001	0.00000E+000	9	...........	1467.70
	38	0.39	1.37941E-001	5.58167E-007	0.00000E+000	1.37977E-001	0.00000E+000	9	...........	1467.70
	39	0.4	1.38943E-001	5.48525E-007	0.00000E+000	1.38977E-001	0.00000E+000	9	...........	1467.70
	40	0.41	1.39937E-001	6.29505E-007	0.00000E+000	1.39977E-001	0.00000E+000	9	...........	1467.70
	41	0.42	1.40963E-001	6.24043E-007	0.00000E+000	1.40976E-001	0.00000E+000	9	...........	1467.70
	42	0.43	1.41963E-001	7.09816E-007	0.00000E+000	1.41976E-001	0.00000E+000	9	...........	1467.70
	43	0.44	1.42956E-001	6.99784E-007	0.00000E+000	1.42976E-001	0.00000E+000	9	...........	1467.70
	44	0.45	1.43948E-001	7.86727E-007	0.00000E+000	1.43975E-001	0.00000E+000	9	...........	1467.70
	45	0.46	1.44944E-001	7.68391E-007	0.00000E+000	1.44975E-001	0.00000E+000	9	...........	1467.70
	46	0.47	1.45941E-001	8.61186E-007	0.00000E+000	1.45975E-001	0.00000E+000	9	...........	1467.70
	47	0.48	1.46947E-001	8.46751E-007	0.00000E+000	1.46974E-001	0.00000E+000	9	...........	1467.70
	48	0.49	1.47949E-001	9.31966E-007	0.00000E+000	1.47974E-001	0.00000E+000	9	...........	1467.70
	49	0.5	1.48938E-001	9.12962E-007	0.00000E+000	1.48973E-001	0.00000E+000	9	...........	1467.70
	50	0.51	1.49941E-001	1.00475E-006	0.00000E+000	1.49973E-001	0.00000E+000	9	...........	1467.70
	51	0.52	1.50932E-001	9.90987E-007	0.00000E+000	1.50973E-001	0.00000E+000	9	...........	1467.70
	52	0.53	1.51929E-001	1.06946E-006	0.00000E+000	1.51972E-001	0.00000E+000	9	...........	1467.70
	53	0.54	1.52918E-001	1.05781E-006	0.00000E+000	1.52972E-001	0.00000E+000	9	...........	1467.70
	54	0.55	1.53932E-001	1.13288E-006	0.00000E+000	1.53972E-001	0.00000E+000	9	...........	1467.70
	55	0.56	1.54938E-001	1.12168E-006	0.00000E+000	1.54971E-001	0.00000E+000	9	...........	1467.70
	56	0.57	1.55938E-001	1.20272E-006	0.00000E+000	1.55971E-001	0.00000E+000	9	...........	1467.70
	57	0.58	1.56947E-001	1.18271E-006	0.00000E+000	1.56971E-001	0.00000E+000	9	...........	1467.70
	58	0.59	1.57935E-001	1.27784E-006	0.00000E+000	1.57970E-001	0.00000E+000	9	...........	1467.70
	59	0.6	1.58918E-001	1.25622E-006	0.00000E+000	1.58970E-001	0.00000E+000	9	...........	1467.70
	60	0.61	1.59928E-001	1.33458E-006	0.00000E+000	1.59970E-001	0.00000E+000	9	...........	1467.70
	61	0.62	1.60923E-001	1.31513E-006	0.00000E+000	1.60969E-001	0.00000E+000	9	...........	1467.70
	62	0.63	1.61910E-001	1.39650E-006	0.00000E+000	1.61969E-001	0.00000E+000	9	...........	1467.70
	63	0.64	1.62910E-001	1.38106E-006	0.00000E+000	1.62969E-001	0.00000E+000	9	...........	1467.70
	64	0.65	1.63921E-001	1.46098E-006	0.00000E+000	1.63968E-001	0.00000E+000	9	...........	1467.70
	65	0.66	1.64911E-001	1.43195E-006	0.00000E+000	1.64968E-001	0.00000E+000	9	...........	1467.70
	66	0.67	1.65901E-001	1.52023E-006	0.00000E+000	1.65968E-001	0.00000E+000	9	...........	1467.70
	67	0.68	1.66927E-001	1.50284E-006	0.00000E+000	1.66967E-001	0.00000E+000	9	...........	1467.70
	68	0.69	1.67932E-001	1.58164E-006	0.00000E+000	1.67967E-001	0.00000E+000	9	...........	1467.70
	69	0.7	1.68923E-001	1.55846E-006	0.00000E+000	1.68966E-001	0.00000E+000	9	...........	1467.70
	70	0.71	1.69933E-001	1.64055E-006	0.00000E+000	1.69966E-001	0.00000E+000	9	...........	1467.70
	71	0.72	1.70917E-001	1.61146E-006	0.00000E+000	1.70966E-001	0.00000E+000	9	...........	1467.70
	72	0.73	1.71921E-001	1.69355E-006	0.00000E+000	1.71965E-001	0.00000E+000	9	...........	1467.70
	73	0.74	1.72928E-001	1.66887E-006	0.00000E+000	1.72965E-001	0.00000E+000	9	...........	1467.70
	74	0.75	1.73925E-001	1.75358E-006	0.00000E+000	1.73965E-001	0.00000E+000	9	...........	1467.70
	75	0.76	1.74918E-001	1.73195E-006	0.00000E+000	1.74964E-001	0.00000E+000	9	...........	1467.70
	76	0.77	1.75934E-001	1.80424E-006	0.00000E+000	1.75964E-001	0.00000E+000	9	...........	1467.70
	77	0.78	1.76926E-001	1.78668E-006	0.00000E+000	1.76964E-001	0.00000E+000	9	...........	1467.70
	78	0.79	1.77916E-001	1.86304E-006	0.00000E+000	1.77963E-001	0.00000E+000	9	...........	1467.70
	79	0.8	1.78912E-001	1.84102E-006	0.00000E+000	1.78963E-001	0.00000E+000	9	...........	1467.70
	80	0.81	1.79929E-001	1.91130E-006	0.00000E+000	1.79963E-001	0.00000E+000	9	...........	1467.70
	81	0.82	1.80949E-001	1.89514E-006	0.00000E+000	1.80962E-001	0.00000E+000	9	...........	1467.70
	82	0.83	1.81952E-001	1.97785E-006	0.00000E+000	1.81962E-001	0.00000E+000	9	...........	1467.70
	83	0.84	1.82943E-001	1.95032E-006	0.00000E+000	1.82962E-001	0.00000E+000	9	...........	1467.70
	84	0.85	1.83935E-001	2.02717E-006	0.00000E+000	1.83961E-001	0.00000E+000	9	...........	1467.70
	85	0.86	1.84932E-001	2.00404E-006	0.00000E+000	1.84961E-001	0.00000E+000	9	...........	1467.70
	86	0.87	1.85934E-001	2.07688E-006	0.00000E+000	1.85961E-001	0.00000E+000	9	...........	1467.70
	87	0.88	1.86930E-001	2.05225E-006	0.00000E+000	1.86960E-001	0.00000E+000	9	...........	1467.70
	88	0.89	1.87931E-001	2.13212E-006	0.00000E+000	1.87960E-001	0.00000E+000	9	...........	1467.70
	89	0.9	1.88917E-001	2.11116E-006	0.00000E+000	1.88960E-001	0.00000E+000	9	...........	1467.70
	90	0.91	1.89924E-001	2.17943E-006	0.00000E+000	1.89959E-001	0.00000E+000	9	...........	1467.70
	91	0.92	1.90919E-001	2.15982E-006	0.00000E+000	1.90959E-001	0.00000E+000	9	...........	1467.70
	92	0.93	1.91947E-001	2.23015E-006	0.00000E+000	1.91958E-001	0.00000E+000	9	...........	1467.70
	93	0.94	1.92944E-001	2.20591E-006	0.00000E+000	1.92958E-001	0.00000E+000	9	...........	1467.70
	94	0.95	1.93939E-001	2.28070E-006	0.00000E+000	1.93958E-001	0.00000E+000	9	...........	1467.70
	95	0.96	1.94926E-001	2.25618E-006	0.00000E+000	1.94957E-001	0.00000E+000	9	...........	1467.70
	96	0.97	1.95929E-001	2.33705E-006	0.00000E+000	1.95957E-001	0.00000E+000	9	...........	1467.70
	97	0.98	1.96925E-001	2.30288E-006	0.00000E+000	1.96957E-001	0.00000E+000	9	...........	1467.70
	98	0.99	1.97924E-001	2.38693E-006	0.00000E+000	1.97956E-001	0.00000E+000	9	...........	1467.70
	99	1	1.98927E-001	2.34752E-006	0.00000E+000	1.98956E-001	0.00000E+000	9	...........	1467.70
	100	1.01	1.99919E-001	2.42666E-006	0.00000E+000	1.99956E-001	0.00000E+000	9	...........	1467.70
	101	1.02	2.00913E-001	2.39707E-006	0.00000E+000	2.00955E-001	0.00000E+000	9	...........	1467.70
	102	1.03	2.01908E-001	2.48262E-006	0.00000E+000	2.01955E-001	0.00000E+000	9	...........	1467.70
	103	1.04	2.02909E-001	2.44232E-006	0.00000E+000	2.02955E-001	0.00000E+000	9	...........	1467.70
	104	1.05	2.03906E-001	2.52319E-006	0.00000E+000	2.03954E-001	0.00000E+000	9	...........	1467.70
	105	1.06	2.04923E-001	2.49783E-006	0.00000E+000	2.04954E-001	0.00000E+000	9	...........	1467.70
	106	1.07	2.05920E-001	2.57079E-006	0.00000E+000	2.05954E-001	0.00000E+000	9	...........	1467.70
	107	1.08	2.06913E-001	2.54197E-006	0.00000E+000	2.06953E-001	0.00000E+000	9	...........	1467.70
	108	1.09	2.07919E-001	2.62764E-006	0.00000E+000	2.07953E-001	0.00000E+000	9	...........	1467.70
	109	1.1	2.08921E-001	2.59414E-006	0.00000E+000	2.08953E-001	0.00000E+000	9	...........	1467.70
	110	1.11	2.09914E-001	2.67395E-006	0.00000E+000	2.09952E-001	0.00000E+000	9	...........	1467.70
	111	1.12	2.10914E-001	2.64257E-006	0.00000E+000	2.10952E-001	0.00000E+000	9	...........	1467.70
	112	1.13	2.11920E-001	2.72032E-006	0.00000E+000	2.11951E-001	0.00000E+000	9	...........	1467.70
	113	1.14	2.12904E-001	2.68604E-006	0.00000E+000	2.12951E-001	0.00000E+000	9	...........	1467.70
	114	1.15	2.13903E-001	2.76948E-006	0.00000E+000	2.13951E-001	0.00000E+000	9	...........	1467.70
	115	1.16	2.14904E-001	2.73654E-006	0.00000E+000	2.14950E-001	0.00000E+000	9	...........	1467.70
	116	1.17	2.15904E-001	2.81763E-006	0.00000E+000	2.15950E-001	0.00000E+000	9	...........	1467.70
	117	1.18	2.16897E-001	2.78062E-006	0.00000E+000	2.16950E-001	0.00000E+000	9	...........	1467.70
	118	1.19	2.17928E-001	2.86038E-006	0.00000E+000	2.17949E-001	0.00000E+000	9	...........	1467.70
	119	1.2	2.18911E-001	2.82426E-006	0.00000E+000	2.18949E-001	0.00000E+000	9	...........	1467.70
	120	1.21	2.19907E-001	2.91176E-006	0.00000E+000	2.19949E-001	0.00000E+000	9	...........	1467.70
	121	1.22	2.20918E-001	2.87102E-006	0.00000E+000	2.20948E-001	0.00000E+000	9	...........	1467.70
	122	1.23	2.21911E-001	2.95601E-006	0.00000E+000	2.21948E-001	0.00000E+000	9	...........	1467.70
	123	1.24	2.22912E-001	2.92085E-006	0.00000E+000	2.22948E-001	0.00000E+000	9	...........	1467.70
	124	1.25	2.23926E-001	2.99642E-006	0.00000E+000	2.23947E-001	0.00000E+000	9	...........	1467.70
	125	1.26	2.24910E-001	2.96421E-006	0.00000E+000	2.24947E-001	0.00000E+000	9	...........	1467.70
	126	1.27	2.25901E-001	3.04608E-006	0.00000E+000	2.25947E-001	0.00000E+000	9	...........	1467.70
	127	1.28	2.26906E-001	3.01565E-006	0.00000E+000	2.26946E-001	0.00000E+000	9	...........	1467.68
	128	1.29	2.27908E-001	3.08749E-006	0.00000E+000	2.27946E-001	0.00000E+000	9	...........	1467.61
	129	1.3	2.28906E-001	3.05282E-006	0.00000E+000	2.28946E-001	0.00000E+000	9	...........	1467.61
	130	1.31	2.29899E-001	3.13564E-006	0.00000E+000	2.29945E-001	0.00000E+000	9	...........	1467.61
	131	1.32	2.30913E-001	3.09958E-006	0.00000E+000	2.30945E-001	0.00000E+000	9	...........	1467.61
	132	1.33	2.31917E-001	3.17677E-006	0.00000E+000	2.31945E-001	0.00000E+000	9	...........	1467.61
	133	1.34	2.32913E-001	3.14796E-006	0.00000E+000	2.32944E-001	0.00000E+000	9	...........	1467.61
	134	1.35	2.33919E-001	3.22080E-006	0.00000E+000	2.33944E-001	0.00000E+000	9	...........	1467.61
	135	1.36	2.34902E-001	3.19761E-006	0.00000E+000	2.34943E-001	0.00000E+000	9	...........	1467.61
	136	1.37	2.35900E-001	3.26466E-006	0.00000E+000	2.35943E-001	0.00000E+000	9	...........	1467.61
	137	1.38	2.36904E-001	3.23763E-006	0.00000E+000	2.36943E-001	0.00000E+000	9	...........	1467.61
	138	1.39	2.37900E-001	3.31042E-006	0.00000E+000	2.37942E-001	0.00000E+000	9	...........	1467.61
	139	1.4	2.38900E-001	3.28116E-006	0.00000E+000	2.38942E-001	0.00000E+000	9	...........	1467.61
	140	1.41	2.39904E-001	3.36080E-006	0.00000E+000	2.39942E-001	0.00000E+000	9	...........	1467.61
	141	1.42	2.40892E-001	3.32652E-006	0.00000E+000	2.40941E-001	0.00000E+000	9	...........	1467.61
	142	1.43	2.41897E-001	3.39820E-006	0.00000E+000	2.41941E-001	0.00000E+000	9	...........	1467.61
	143	1.44	2.42889E-001	3.38287E-006	0.00000E+000	2.42941E-001	0.00000E+000	9	...........	1467.61
	144	1.45	2.43917E-001	3.43816E-006	0.00000E+000	2.43940E-001	0.00000E+000	9	...........	1467.61
	145	1.46	2.44912E-001	3.41637E-006	0.00000E+000	2.44940E-001	0.00000E+000	9	...........	1467.61
	146	1.47	2.45907E-001	3.49701E-006	0.00000E+000	2.45940E-001	0.00000E+000	9	...........	1467.61
	147	1.48	2.46897E-001	3.46770E-006	0.00000E+000	2.46939E-001	0.00000E+000	9	...........	1467.61
	148	1.49	2.47900E-001	3.53786E-006	0.00000E+000	2.47939E-001	0.00000E+000	9	...........	1467.61
	149	1.5	2.48901E-001	3.51083E-006	0.00000E+000	2.48939E-001	0.00000E+000	9	...........	1467.61
	150	1.51	2.49907E-001	3.58200E-006	0.00000E+000	2.49938E-001	0.00000E+000	9	...........	1467.61
	151	1.52	2.50903E-001	3.55141E-006	0.00000E+000	2.50938E-001	0.00000E+000	9	...........	1467.61
	152	1.53	2.51897E-001	3.62403E-006	0.00000E+000	2.51938E-001	0.00000E+000	9	...........	1467.61
	153	1.54	2.52872E-001	3.58317E-006	0.00000E+000	2.52925E-001	0.00000E+000	9	...........	1467.61
	154	1.55	2.53868E-001	3.67207E-006	0.00000E+000	2.53924E-001	0.00000E+000	9	...........	1467.61
	155	1.56	2.54865E-001	3.64398E-006	0.00000E+000	2.54924E-001	0.00000E+000	9	...........	1467.61
	156	1.57	2.55874E-001	3.71454E-006	0.00000E+000	2.55924E-001	0.00000E+000	9	...........	1467.61
	157	1.58	2.56876E-001	3.69096E-006	0.00000E+000	2.56923E-001	0.00000E+000	9	...........	1467.61
	158	1.59	2.57879E-001	3.75700E-006	0.00000E+000	2.57923E-001	0.00000E+000	9	...........	1467.61
	159	1.6	2.58878E-001	3.73493E-006	0.00000E+000	2.58923E-001	0.00000E+000	9	...........	1467.61
	160	1.61	2.59872E-001	3.80059E-006	0.00000E+000	2.59922E-001	0.00000E+000	9	...........	1467.61
	161	1.62	2.60869E-001	3.78387E-006	0.00000E+000	2.60922E-001	0.00000E+000	9	...........	1467.61
	162	1.63	2.61866E-001	3.85119E-006	0.00000E+000	2.61922E-001	0.00000E+000	9	...........	1467.61
	163	1.64	2.62877E-001	3.83765E-006	0.00000E+000	2.62921E-001	0.00000E+000	9	...........	1467.61
	164	1.65	2.63870E-001	3.90074E-006	0.00000E+000	2.63921E-001	0.00000E+000	9	...........	1467.61
	165	1.66	2.64869E-001	3.88502E-006	0.00000E+000	2.64921E-001	0.00000E+000	9	...........	1467.61
	166	1.67	2.65866E-001	3.95146E-006	0.00000E+000	2.65920E-001	0.00000E+000	9	...........	1467.61
	167	1.68	2.66859E-001	3.93095E-006	0.00000E+000	2.66920E-001	0.00000E+000	9	...........	1467.61
	168	1.69	2.67856E-001	4.00663E-006	0.00000E+000	2.67919E-001	0.00000E+000	9	...........	1467.61
	169	1.7	2.68891E-001	3.97782E-006	0.00000E+000	2.68919E-001	0.00000E+000	9	...........	1467.61
	170	1.71	2.69885E-001	4.04960E-006	0.00000E+000	2.69919E-001	0.00000E+000	9	...........	1467.61
	171	1.72	2.70883E-001	4.02709E-006	0.00000E+000	2.70918E-001	0.00000E+000	9	...........	1467.61
	172	1.73	2.71883E-001	4.09357E-006	0.00000E+000	2.71918E-001	0.00000E+000	9	...........	1467.61
	173	1.74	2.72873E-001	4.08103E-006	0.00000E+000	2.72918E-001	0.00000E+000	9	...........	1467.61
	174	1.75	2.73878E-001	4.13955E-006	0.00000E+000	2.73917E-001	0.00000E+000	9	...........	1467.61
	175	1.76	2.74867E-001	4.12768E-006	0.00000E+000	2.74917E-001	0.00000E+000	9	...........	1467.61
	176	1.77	2.75879E-001	4.19501E-006	0.00000E+000	2.75917E-001	0.00000E+000	9	...........	1467.61
	177	1.78	2.76879E-001	4.17422E-006	0.00000E+000	2.76916E-001	0.00000E+000	9	...........	1467.61
	178	1.79	2.77877E-001	4.24372E-006	0.00000E+000	2.77916E-001	0.00000E+000	9	...........	1467.61
	179	1.8	2.78868E-001	4.23608E-006	0.00000E+000	2.78916E-001	0.00000E+000	9	...........	1467.61
	180	1.81	2.79866E-001	4.29388E-006	0.00000E+000	2.79915E-001	0.00000E+000	9	...........	1467.61
	181	1.82	2.80868E-001	4.27270E-006	0.00000E+000	2.80915E-001	0.00000E+000	9	...........	1467.61
	182	1.83	2.81879E-001	4.34666E-006	0.00000E+000	2.81915E-001	0.00000E+000	9	...........	1467.61
	183	1.84	2.82883E-001	4.33479E-006	0.00000E+000	2.82914E-001	0.00000E+000	9	...........	1467.61
	184	1.85	2.83892E-001	4.40189E-006	0.00000E+000	2.83914E-001	0.00000E+000	9	...........	1467.61
	185	1.86	2.84891E-001	4.38322E-006	0.00000E+000	2.84914E-001	0.00000E+000	9	...........	1467.61
	186	1.87	2.85883E-001	4.45991E-006	0.00000E+000	2.85913E-001	0.00000E+000	9	...........	1467.61
	187	1.88	2.86878E-001	4.43873E-006	0.00000E+000	2.86913E-001	0.00000E+000	9	...........	1467.61
	188	1.89	2.87894E-001	4.51319E-006	0.00000E+000	2.87912E-001	0.00000E+000	9	...........	1467.61
	189	1.9	2.88887E-001	4.48861E-006	0.00000E+000	2.88912E-001	0.00000E+000	9	...........	1467.61
	190	1.91	2.89884E-001	4.56998E-006	0.00000E+000	2.89912E-001	0.00000E+000	9	...........	1467.61
	191	1.92	2.90871E-001	4.55075E-006	0.00000E+000	2.90911E-001	0.00000E+000	9	...........	1467.61
	192	1.93	2.91874E-001	4.62727E-006	0.00000E+000	2.91911E-001	0.00000E+000	9	...........	1467.61
	193	1.94	2.92866E-001	4.60671E-006	0.00000E+000	2.92911E-001	0.00000E+000	9	...........	1467.61
	194	1.95	2.93865E-001	4.67905E-006	0.00000E+000	2.93910E-001	0.00000E+000	9	...........	1467.61
	195	1.96	2.94897E-001	4.65865E-006	0.00000E+000	2.94910E-001	0.00000E+000	9	...........	1467.61
	196	1.97	2.95891E-001	4.72609E-006	0.00000E+000	2.95910E-001	0.00000E+000	9	...........	1467.61
	197	1.98	2.96879E-001	4.71968E-006	0.00000E+000	2.96909E-001	0.00000E+000	9	...........	1467.61
	198	1.99	2.97878E-001	4.78683E-006	0.00000E+000	2.97909E-001	0.00000E+000	9	...........	1467.61
	199	2	2.98869E-001	4.77864E-006	0.00000E+000	2.98909E-001	0.00000E+000	9	...........	1467.61
	200	2.01	2.99868E-001	4.85254E-006	0.00000E+000	2.99908E-001	0.00000E+000	9	...........	1467.61
	201	2.02	2.98915E-001	1.86566E-006	0.00000E+000	2.98909E-001	0.00000E+000	9	...........	1467.61
	202	2.03	2.97915E-001	1.63136E-006	0.00000E+000	2.97909E-001	0.00000E+000	9	...........	1467.61
	203	2.04	2.96912E-001	1.38920E-006	0.00000E+000	2.96909E-001	0.00000E+000	9	...........	1467.61
	204	2.05	2.95923E-001	1.28013E-006	0.00000E+000	2.95910E-001	0.00000E+000	9	...........	1467.61
	205	2.06	2.94924E-001	1.09677E-006	0.00000E+000	2.94910E-001	0.00000E+000	9	...........	1467.61
	206	2.07	2.93898E-001	1.01891E-006	0.00000E+000	2.93910E-001	0.00000E+000	9	...........	1467.61
	207	2.08	2.92903E-001	8.74617E-007	0.00000E+000	2.92911E-001	0.00000E+000	9	...........	1467.61
	208	2.09	2.91901E-001	8.16210E-007	0.00000E+000	2.91911E-001	0.00000E+000	9	...........	1467.61
	209	2.1	2.90891E-001	6.77714E-007	0.00000E+000	2.90911E-001	0.00000E+000	9	...........	1467.61
	210	2.11	2.89914E-001	6.45723E-007	0.00000E+000	2.89912E-001	0.00000E+000	9	...........	1467.61
	211	2.12	2.88916E-001	5.21941E-007	0.00000E+000	2.88912E-001	0.00000E+000	9	...........	1467.61
	212	2.13	2.87917E-001	4.95858E-007	0.00000E+000	2.87912E-001	0.00000E+000	9	...........	1467.61
	213	2.14	2.86908E-001	3.88516E-007	0.00000E+000	2.86913E-001	0.00000E+000	9	...........	1467.61
	214	2.15	2.85914E-001	3.61709E-007	0.00000E+000	2.85913E-001	0.00000E+000	9	...........	1467.61
	215	2.16	2.84921E-001	2.63842E-007	0.00000E+000	2.84914E-001	0.00000E+000	9	...........	1467.61
	216	2.17	2.83928E-001	2.35920E-007	0.00000E+000	2.83914E-001	0.00000E+000	9	...........	1467.61
	217	2.18	2.82913E-001	1.41787E-007	0.00000E+000	2.82914E-001	0.00000E+000	9	...........	1467.61
	218	2.19	2.81919E-001	1.32090E-007	0.00000E+000	2.81915E-001	0.00000E+000	9	...........	1467.61
	219	2.2	2.80908E-001	2.65878E-008	0.00000E+000	2.80915E-001	0.00000E+000	9	...........	1467.61
	220	2.21	2.79909E-001	2.21850E-008	0.00000E+000	2.79915E-001	0.00000E+000	9	...........	1467.61
	221	2.22	2.78910E-001	-6.90496E-008	0.00000E+000	2.78916E-001	0.00000E+000	9	...........	1467.61
	222	2.23	2.77914E-001	-7.81340E-008	0.00000E+000	2.77916E-001	0.00000E+000	9	...........	1467.61
	223	2.24	2.76923E-001	-1.70539E-007	0.00000E+000	2.76916E-001	0.00000E+000	9	...........	1467.61
	224	2.25	2.75922E-001	-1.67362E-007	0.00000E+000	2.75917E-001	0.00000E+000	9	...........	1467.61
	225	2.26	2.74920E-001	-2.56256E-007	0.00000E+000	2.74917E-001	0.00000E+000	9	...........	1467.61
	226	2.27	2.73925E-001	-2.55308E-007	0.00000E+000	2.73917E-001	0.00000E+000	9	...........	1467.61
	227	2.28	2.72926E-001	-3.46264E-007	0.00000E+000	2.72918E-001	0.00000E+000	9	...........	1467.57
	228	2.29	2.71930E-001	-3.41583E-007	0.00000E+000	2.71918E-001	0.00000E+000	9	...........	1467.52
	229	2.3	2.70938E-001	-4.22172E-007	0.00000E+000	2.70918E-001	0.00000E+000	9	...........	1467.52
	230	2.31	2.69943E-001	-4.22395E-007	0.00000E+000	2.69919E-001	0.00000E+000	9	...........	1467.52
	231	2.32	2.68950E-001	-4.97021E-007	0.00000E+000	2.68919E-001	0.00000E+000	9	...........	1467.52
	232	2.33	2.67914E-001	-5.02260E-007	0.00000E+000	2.67919E-001	0.00000E+000	9	...........	1467.52
	233	2.34	2.66910E-001	-5.78837E-007	0.00000E+000	2.66920E-001	0.00000E+000	9	...........	1467.52
	234	2.35	2.65911E-001	-5.75270E-007	0.00000E+000	2.65920E-001	0.00000E+000	9	...........	1467.52
	235	2.36	2.64911E-001	-6.52516E-007	0.00000E+000	2.64921E-001	0.00000E+000	9	...........	1467.52
	236	2.37	2.63913E-001	-6.48447E-007	0.00000E+000	2.63921E-001	0.00000E+000	9	...........	1467.52
	237	2.38	2.62915E-001	-7.22628E-007	0.00000E+000	2.62921E-001	0.00000E+000	9	...........	1467.52
	238	2.39	2.61913E-001	-7.19729E-007	0.00000E+000	2.61922E-001	0.00000E+000	9	...........	1467.52
	239	2.4	2.60917E-001	-7.92405E-007	0.00000E+000	2.60922E-001	0.00000E+000	9	...........	1467.52
	240	2.41	2.59916E-001	-7.82596E-007	0.00000E+000	2.59922E-001	0.00000E+000	9	...........	1467.52
	241	2.42	2.58922E-001	-8.57166E-007	0.00000E+000	2.58923E-001	0.00000E+000	9	...........	1467.52
	242	2.43	2.57926E-001	-8.48862E-007	0.00000E+000	2.57923E-001	0.00000E+000	9	...........	1467.52
	243	2.44	2.56925E-001	-9.25049E-007	0.00000E+000	2.56923E-001	0.00000E+000	9	...........	1467.52
	244	2.45	2.55922E-001	-9.08552E-007	0.00000E+000	2.55924E-001	0.00000E+000	9	...........	1467.52
	245	2.46	2.54916E-001	-9.82621E-007	0.00000E+000	2.54924E-001	0.00000E+000	9	...........	1467.52
	246	2.47	2.53923E-001	-9.73592E-007	0.00000E+000	2.53924E-001	0.00000E+000	9	...........	1467.52
	247	2.48	2.52924E-001	-1.04432E-006	0.00000E+000	2.52925E-001	0.00000E+000	9	...........	1467.52
	248	2.49	2.51930E-001	-1.02453E-006	0.00000E+000	2.51938E-001	0.00000E+000	9	...........	1467.52
	249	2.5	2.50932E-001	-1.10434E-006	0.00000E+000	2.50938E-001	0.00000E+000	9	...........	1467.52
	250	2.51	2.49936E-001	-1.09448E-006	0.00000E+000	2.49938E-001	0.00000E+000	9	...........	1467.52
	251	2.52	2.48938E-001	-1.17038E-006	0.00000E+000	2.48939E-001	0.00000E+000	9	...........	1467.52
	252	2.53	2.47938E-001	-1.16331E-006	0.00000E+000	2.47939E-001	0.00000E+000	9	...........	1467.52
	253	2.54	2.46939E-001	-1.22322E-006	0.00000E+000	2.46939E-001	0.00000E+000	9	...........	1467.52
	254	2.55	2.45950E-001	-1.21993E-006	0.00000E+000	2.45940E-001	0.00000E+000	9	...........	1467.52
	255	2.56	2.44957E-001	-1.29021E-006	0.00000E+000	2.44940E-001	0.00000E+000	9	...........	1467.52
	256	2.57	2.43964E-001	-1.27355E-006	0.00000E+000	2.43940E-001	0.00000E+000	9	...........	1467.52
	257	2.58	2.42941E-001	-1.34343E-006	0.00000E+000	2.42941E-001	0.00000E+000	9	...........	1467.52
	258	2.59	2.41945E-001	-1.33290E-006	0.00000E+000	2.41941E-001	0.00000E+000	9	...........	1467.52
	259	2.6	2.40932E-001	-1.40173E-006	0.00000E+000	2.40941E-001	0.00000E+000	9	...........	1467.52
	260	2.61	2.39938E-001	-1.39660E-006	0.00000E+000	2.39942E-001	0.00000E+000	9	...........	1467.52
	261	2.62	2.38940E-001	-1.45156E-006	0.00000E+000	2.38942E-001	0.00000E+000	9	...........	1467.52
	262	2.63	2.37942E-001	-1.45267E-006	0.00000E+000	2.37942E-001	0.00000E+000	9	...........	1467.52
	263	2.64	2.36946E-001	-1.50506E-006	0.00000E+000	2.36943E-001	0.00000E+000	9	...........	1467.52
	264	2.65	2.35938E-001	-1.50328E-006	0.00000E+000	2.35943E-001	0.00000E+000	9	...........	1467.52
	265	2.66	2.34944E-001	-1.56809E-006	0.00000E+000	2.34943E-001	0.00000E+000	9	...........	1467.52
	266	2.67	2.33956E-001	-1.55890E-006	0.00000E+000	2.33944E-001	0.00000E+000	9	...........	1467.52
	267	2.68	2.32950E-001	-1.61519E-006	0.00000E+000	2.32944E-001	0.00000E+000	9	...........	1467.52
	268	2.69	2.31956E-001	-1.60800E-006	0.00000E+000	2.31945E-001	0.00000E+000	9	...........	1467.52
	269	2.7	2.30947E-001	-1.67098E-006	0.00000E+000	2.30945E-001	0.00000E+000	9	...........	1467.52
	270	2.71	2.29932E-001	-1.65961E-006	0.00000E+000	2.29945E-001	0.00000E+000	9	...........	1467.52
	271	2.72	2.28935E-001	-1.72565E-006	0.00000E+000	2.28946E-001	0.00000E+000	9	...........	1467.52
	272	2.73	2.27941E-001	-1.71300E-006	0.00000E+000	2.27946E-001	0.00000E+000	9	...........	1467.52
	273	2.74	2.26937E-001	-1.77280E-006	0.00000E+000	2.26946E-001	0.00000E+000	9	...........	1467.52
	274	2.75	2.25934E-001	-1.76940E-006	0.00000E+000	2.25947E-001	0.00000E+000	9	...........	1467.52
	275	2.76	2.24939E-001	-1.83121E-006	0.00000E+000	2.24947E-001	0.00000E+000	9	...........	1467.52
	276	2.77	2.23960E-001	-1.81722E-006	0.00000E+000	2.23947E-001	0.00000E+000	9	...........	1467.52
	277	2.78	2.22958E-001	-1.87919E-006	0.00000E+000	2.22948E-001	0.00000E+000	9	...........	1467.52
	278	2.79	2.21952E-001	-1.87000E-006	0.00000E+000	2.21948E-001	0.00000E+000	9	...........	1467.52
	279	2.8	2.20956E-001	-1.92896E-006	0.00000E+000	2.20948E-001	0.00000E+000	9	...........	1467.52
	280	2.81	2.19950E-001	-1.92110E-006	0.00000E+000	2.19949E-001	0.00000E+000	9	...........	1467.52
	281	2.82	2.18954E-001	-1.97957E-006	0.00000E+000	2.18949E-001	0.00000E+000	9	...........	1467.52
	282	2.83	2.17968E-001	-1.96753E-006	0.00000E+000	2.17949E-001	0.00000E+000	9	...........	1467.52
	283	2.84	2.16940E-001	-2.03079E-006	0.00000E+000	2.16950E-001	0.00000E+000	9	...........	1467.52
	284	2.85	2.15941E-001	-2.02209E-006	0.00000E+000	2.15950E-001	0.00000E+000	9	...........	1467.52
	285	2.86	2.14942E-001	-2.08106E-006	0.00000E+000	2.14950E-001	0.00000E+000	9	...........	1467.52
	286	2.87	2.13937E-001	-2.07482E-006	0.00000E+000	2.13951E-001	0.00000E+000	9	...........	1467.52
	287	2.88	2.12952E-001	-2.13339E-006	0.00000E+000	2.12951E-001	0.00000E+000	9	...........	1467.52
	288	2.89	2.11962E-001	-2.12587E-006	0.00000E+000	2.11951E-001	0.00000E+000	9	...........	1467.52
	289	2.9	2.10951E-001	-2.17775E-006	0.00000E+000	2.10952E-001	0.00000E+000	9	...........	1467.52
	290	2.91	2.09955E-001	-2.18416E-006	0.00000E+000	2.09952E-001	0.00000E+000	9	...........	1467.52
	291	2.92	2.08957E-001	-2.23421E-006	0.00000E+000	2.08953E-001	0.00000E+000	9	...........	1467.52
	292	2.93	2.07962E-001	-2.22697E-006	0.00000E+000	2.07953E-001	0.00000E+000	9	...........	1467.52
	293	2.94	2.06960E-001	-2.28933E-006	0.00000E+000	2.06953E-001	0.00000E+000	9	...........	1467.52
	294	2.95	2.05968E-001	-2.28192E-006	0.00000E+000	2.05954E-001	0.00000E+000	9	...........	1467.52
	295	2.96	2.04975E-001	-2.33776E-006	0.00000E+000	2.04954E-001	0.00000E+000	9	...........	1467.52
	296	2.97	2.03961E-001	-2.32801E-006	0.00000E+000	2.03954E-001	0.00000E+000	9	...........	1467.52
	297	2.98	2.02962E-001	-2.38982E-006	0.00000E+000	2.02955E-001	0.00000E+000	9	...........	1467.52
	298	2.99	2.01967E-001	-2.37873E-006	0.00000E+000	2.01955E-001	0.00000E+000	9	...........	1467.52
	299	3	2.00958E-001	-2.44282E-006	0.00000E+000	2.00955E-001	0.00000E+000	9	...........	1467.52
	300	3.01	1.99970E-001	-2.44014E-006	0.00000E+000	1.99956E-001	0.00000E+000	9	...........	1467.52
	301	3.02	1.98981E-001	-2.48980E-006	0.00000E+000	1.98956E-001	0.00000E+000	9	...........	1467.52
	302	3.03	1.97967E-001	-2.47949E-006	0.00000E+000	1.97956E-001	0.00000E+000	9	...........	1467.52
	303	3.04	1.96972E-001	-2.55334E-006	0.00000E+000	1.96957E-001	0.00000E+000	9	...........	1467.52
	304	3.05	1.95976E-001	-2.53166E-006	0.00000E+000	1.95957E-001	0.00000E+000	9	...........	1467.52
	305	3.06	1.94971E-001	-2.59954E-006	0.00000E+000	1.94957E-001	0.00000E+000	9	...........	1467.52
	306	3.07	1.93987E-001	-2.58934E-006	0.00000E+000	1.93958E-001	0.00000E+000	9	...........	1467.52
	307	3.08	1.92993E-001	-2.64457E-006	0.00000E+000	1.92958E-001	0.00000E+000	9	...........	1467.52
	308	3.09	1.91996E-001	-2.63705E-006	0.00000E+000	1.91958E-001	0.00000E+000	9	...........	1467.52
	309	3.1	1.90965E-001	-2.69356E-006	0.00000E+000	1.90959E-001	0.00000E+000	9	...........	1467.52
	310	3.11	1.89969E-001	-2.69055E-006	0.00000E+000	1.89959E-001	0.00000E+000	9	...........	1467.52
	311	3.12	1.88978E-001	-2.75598E-006	0.00000E+000	1.88960E-001	0.00000E+000	9	...........	1467.52
	312	3.13	1.87980E-001	-2.74628E-006	0.00000E+000	1.87960E-001	0.00000E+000	9	...........	1467.52
	313	3.14	1.86982E-001	-2.80698E-006	0.00000E+000	1.86960E-001	0.00000E+000	9	...........	1467.52
	314	3.15	1.85988E-001	-2.79756E-006	0.00000E+000	1.85961E-001	0.00000E+000	9	...........	1467.52
	315	3.16	1.84980E-001	-2.85218E-006	0.00000E+000	1.84961E-001	0.00000E+000	9	...........	1467.52
	316	3.17	1.83979E-001	-2.85084E-006	0.00000E+000	1.83961E-001	0.00000E+000	9	...........	1467.52
	317	3.18	1.82976E-001	-2.91449E-006	0.00000E+000	1.82962E-001	0.00000E+000	9	...........	1467.52
	318	3.19	1.81980E-001	-2.90401E-006	0.00000E+000	1.81962E-001	0.00000E+000	9	...........	1467.52
	319	3.2	1.80980E-001	-2.96214E-006	0.00000E+000	1.80962E-001	0.00000E+000	9	...........	1467.52
	320	3.21	1.79976E-001	-2.96002E-006	0.00000E+000	1.79963E-001	0.00000E+000	9	...........	1467.52
	321	3.22	1.78962E-001	-3.01887E-006	0.00000E+000	1.78963E-001	0.00000E+000	9	...........	1467.52
	322	3.23	1.77963E-001	-3.02066E-006	0.00000E+000	1.77963E-001	0.00000E+000	9	...........	1467.52
	323	3.24	1.76965E-001	-3.06909E-006	0.00000E+000	1.76964E-001	0.00000E+000	9	...........	1467.52
	324	3.25	1.75977E-001	-3.07277E-006	0.00000E+000	1.75964E-001	0.00000E+000	9	...........	1467.52
	325	3.26	1.74970E-001	-3.12900E-006	0.00000E+000	1.74964E-001	0.00000E+000	9	...........	1467.52
	326	3.27	1.73974E-001	-3.13446E-006	0.00000E+000	1.73965E-001	0.00000E+000	9	...........	1467.52
	327	3.28	1.72968E-001	-3.18139E-006	0.00000E+000	1.72965E-001	0.00000E+000	9	...........	1467.58
	328	3.29	1.71963E-001	-3.18145E-006	0.00000E+000	1.71965E-001	0.00000E+000	9	...........	1467.61
	329	3.3	1.70958E-001	-3.24041E-006	0.00000E+000	1.70966E-001	0.00000E+000	9	...........	1467.61
	330	3.31	1.69969E-001	-3.24392E-006	0.00000E+000	1.69966E-001	0.00000E+000	9	...........	1467.61
	331	3.32	1.68971E-001	-3.29129E-006	0.00000E+000	1.68966E-001	0.00000E+000	9	...........	1467.61
	332	3.33	1.67978E-001	-3.28600E-006	0.00000E+000	1.67967E-001	0.00000E+000	9	...........	1467.61
	333	3.34	1.66987E-001	-3.35176E-006	0.00000E+000	1.66967E-001	0.00000E+000	9	...........	1467.61
	334	3.35	1.65956E-001	-3.34630E-006	0.00000E+000	1.65968E-001	0.00000E+000	9	...........	1467.61
	335	3.36	1.64958E-001	-3.40371E-006	0.00000E+000	1.64968E-001	0.00000E+000	9	...........	1467.61
	336	3.37	1.63978E-001	-3.40571E-006	0.00000E+000	1.63968E-001	0.00000E+000	9	...........	1467.61
	337	3.38	1.62967E-001	-3.45448E-006	0.00000E+000	1.62969E-001	0.00000E+000	9	...........	1467.61
	338	3.39	1.61971E-001	-3.45637E-006	0.00000E+000	1.61969E-001	0.00000E+000	9	...........	1467.61
	339	3.4	1.60973E-001	-3.51495E-006	0.00000E+000	1.60969E-001	0.00000E+000	9	...........	1467.61
	340	3.41	1.59979E-001	-3.51857E-006	0.00000E+000	1.59970E-001	0.00000E+000	9	...........	1467.61
	341	3.42	1.58967E-001	-3.56890E-006	0.00000E+000	1.58970E-001	0.00000E+000	9	...........	1467.61
	342	3.43	1.57988E-001	-3.57771E-006	0.00000E+000	1.57970E-001	0.00000E+000	9	...........	1467.61
	343	3.44	1.56992E-001	-3.62708E-006	0.00000E+000	1.56971E-001	0.00000E+000	9	...........	1467.61
	344	3.45	1.55984E-001	-3.63104E-006	0.00000E+000	1.55971E-001	0.00000E+000	9	...........	1467.61
	345	3.46	1.54986E-001	-3.68014E-006	0.00000E+000	1.54971E-001	0.00000E+000	9	...........	1467.61
	346	3.47	1.53975E-001	-3.69318E-006	0.00000E+000	1.53972E-001	0.00000E+000	9	...........	1467.61
	347	3.48	1.52971E-001	-3.73615E-006	0.00000E+000	1.52972E-001	0.00000E+000	9	...........	1467.61
	348	3.49	1.51967E-001	-3.74936E-006	0.00000E+000	1.51972E-001	0.00000E+000	9	...........	1467.61
	349	3.5	1.50971E-001	-3.80158E-006	0.00000E+000	1.50973E-001	0.00000E+000	9	...........	1467.61
	350	3.51	1.49973E-001	-3.81552E-006	0.00000E+000	1.49973E-001	0.00000E+000	9	...........	1467.61
	351	3.52	1.48984E-001	-3.86021E-006	0.00000E+000	1.48973E-001	0.00000E+000	9	...........	1467.61
	352	3.53	1.47986E-001	-3.86818E-006	0.00000E+000	1.47974E-001	0.00000E+000	9	...........	1467.61
	353	3.54	1.46990E-001	-3.91177E-006	0.00000E+000	1.46974E-001	0.00000E+000	9	...........	1467.61
	354	3.55	1.45986E-001	-3.92960E-006	0.00000E+000	1.45975E-001	0.00000E+000	9	...........	1467.61
	355	3.56	1.44988E-001	-3.97157E-006	0.00000E+000	1.44975E-001	0.00000E+000	9	...........	1467.61
	356	3.57	1.43990E-001	-3.98584E-006	0.00000E+000	1.43975E-001	0.00000E+000	9	...........	1467.61
	357	3.58	1.42991E-001	-4.03087E-006	0.00000E+000	1.42976E-001	0.00000E+000	9	...........	1467.61
	358	3.59	1.42001E-001	-4.03644E-006	0.00000E+000	1.41976E-001	0.00000E+000	9	...........	1467.61
	359	3.6	1.41004E-001	-4.08214E-006	0.00000E+000	1.40976E-001	0.00000E+000	9	...........	1467.61
	360	3.61	1.39979E-001	-4.10092E-006	0.00000E+000	1.39977E-001	0.00000E+000	9	...........	1467.61
	361	3.62	1.38986E-001	-4.13871E-006	0.00000E+000	1.38977E-001	0.00000E+000	9	...........	1467.61
	362	3.63	1.37986E-001	-4.16006E-006	0.00000E+000	1.37977E-001	0.00000E+000	9	...........	1467.61
	363	3.64	1.36985E-001	-4.20041E-006	0.00000E+000	1.36978E-001	0.00000E+000	9	...........	1467.61
	364	3.65	1.35986E-001	-4.21807E-006	0.00000E+000	1.35978E-001	0.00000E+000	9	...........	1467.61
	365	3.66	1.34988E-001	-4.25525E-006	0.00000E+000	1.34978E-001	0.00000E+000	9	...........	1467.61
	366	3.67	1.33989E-001	-4.26868E-006	0.00000E+000	1.33979E-001	0.00000E+000	9	...........	1467.61
	367	3.68	1.32999E-001	-4.31382E-006	0.00000E+000	1.32979E-001	0.00000E+000	9	...........	1467.61
	368	3.69	1.32002E-001	-4.33077E-006	0.00000E+000	1.31979E-001	0.00000E+000	9	...........	1467.61
	369	3.7	1.31005E-001	-4.37881E-006	0.00000E+000	1.30980E-001	0.00000E+000	9	...........	1467.61
	370	3.71	1.30011E-001	-4.36722E-006	0.00000E+000	1.29993E-001	0.00000E+000	9	...........	1467.61
	371	3.72	1.29012E-001	-4.43281E-006	0.00000E+000	1.28993E-001	0.00000E+000	9	...........	1467.61
	372	3.73	1.28013E-001	-4.44624E-006	0.00000E+000	1.27993E-001	0.00000E+000	9	...........	1467.61
	373	3.74	1.26996E-001	-4.49211E-006	0.00000E+000	1.26994E-001	0.00000E+000	9	...........	1467.61
	374	3.75	1.25996E-001	-4.50950E-006	0.00000E+000	1.25994E-001	0.00000E+000	9	...........	1467.61
	375	3.76	1.25005E-001	-4.55275E-006	0.00000E+000	1.24994E-001	0.00000E+000	9	...........	1467.61
	376	3.77	1.23998E-001	-4.56707E-006	0.00000E+000	1.23995E-001	0.00000E+000	9	...........	1467.61
	377	3.78	1.23001E-001	-4.60737E-006	0.00000E+000	1.22995E-001	0.00000E+000	9	...........	1467.61
	378	3.79	1.22013E-001	-4.62492E-006	0.00000E+000	1.21995E-001	0.00000E+000	9	...........	1467.61
	379	3.8	1.21009E-001	-4.66232E-006	0.00000E+000	1.20996E-001	0.00000E+000	9	...........	1467.61
	380	3.81	1.20008E-001	-4.68266E-006	0.00000E+000	1.19996E-001	0.00000E+000	9	...........	1467.61
	381	3.82	1.19012E-001	-4.72853E-006	0.00000E+000	1.18996E-001	0.00000E+000	9	...........	1467.61
	382	3.83	1.18003E-001	-4.74887E-006	0.00000E+000	1.17997E-001	0.00000E+000	9	...........	1467.61
	383	3.84	1.17015E-001	-4.78649E-006	0.00000E+000	1.16997E-001	0.00000E+000	9	...........	1467.61
	384	3.85	1.16021E-001	-4.81079E-006	0.00000E+000	1.15997E-001	0.00000E+000	9	...........	1467.61
	385	3.86	1.15018E-001	-4.84607E-006	0.00000E+000	1.14998E-001	0.00000E+000	9	...........	1467.61
	386	3.87	1.13994E-001	-4.87009E-006	0.00000E+000	1.13998E-001	0.00000E+000	9	...........	1467.61
	387	3.88	1.12999E-001	-4.91267E-006	0.00000E+000	1.12999E-001	0.00000E+000	9	...........	1467.61
[...]
	1003	10.04	2.96916E-001	1.39249E-006	0.00000E+000	2.96909E-001	0.00000E+000	9	...........	1467.52
	1004	10.05	2.95929E-001	1.20327E-006	0.00000E+000	2.95910E-001	0.00000E+000	9	...........	1467.52
	1005	10.06	2.94939E-001	1.10491E-006	0.00000E+000	2.94910E-001	0.00000E+000	9	...........	1467.52
	1006	10.07	2.93905E-001	9.43057E-007	0.00000E+000	2.93910E-001	0.00000E+000	9	...........	1467.52
	1007	10.08	2.92904E-001	8.79801E-007	0.00000E+000	2.92911E-001	0.00000E+000	9	...........	1467.52
	1008	10.09	2.91915E-001	7.47212E-007	0.00000E+000	2.91911E-001	0.00000E+000	9	...........	1467.52
	1009	10.1	2.90909E-001	7.01957E-007	0.00000E+000	2.90911E-001	0.00000E+000	9	...........	1467.52
	1010	10.11	2.89917E-001	5.64743E-007	0.00000E+000	2.89912E-001	0.00000E+000	9	...........	1467.52
	1011	10.12	2.88926E-001	5.39162E-007	0.00000E+000	2.88912E-001	0.00000E+000	9	...........	1467.52
	1012	10.13	2.87924E-001	4.18278E-007	0.00000E+000	2.87912E-001	0.00000E+000	9	...........	1467.52
	1013	10.14	2.86923E-001	3.91972E-007	0.00000E+000	2.86913E-001	0.00000E+000	9	...........	1467.52
	1014	10.15	2.85920E-001	2.83683E-007	0.00000E+000	2.85913E-001	0.00000E+000	9	...........	1467.52
	1015	10.16	2.84924E-001	2.66796E-007	0.00000E+000	2.84914E-001	0.00000E+000	9	...........	1467.52
	1016	10.17	2.83930E-001	1.56668E-007	0.00000E+000	2.83914E-001	0.00000E+000	9	...........	1467.52
	1017	10.18	2.82910E-001	1.44128E-007	0.00000E+000	2.82914E-001	0.00000E+000	9	...........	1467.52
	1018	10.19	2.81913E-001	5.17233E-008	0.00000E+000	2.81915E-001	0.00000E+000	9	...........	1467.52
	1019	10.2	2.80900E-001	3.85704E-008	0.00000E+000	2.80915E-001	0.00000E+000	9	...........	1467.52
	1020	10.21	2.79903E-001	-4.91530E-008	0.00000E+000	2.79915E-001	0.00000E+000	9	...........	1467.52
	1021	10.22	2.78904E-001	-7.11117E-008	0.00000E+000	2.78916E-001	0.00000E+000	9	...........	1467.52
	1022	10.23	2.77910E-001	-1.55547E-007	0.00000E+000	2.77916E-001	0.00000E+000	9	...........	1467.52
	1023	10.24	2.76916E-001	-1.61120E-007	0.00000E+000	2.76916E-001	0.00000E+000	9	...........	1467.52
	1024	10.25	2.75915E-001	-2.51964E-007	0.00000E+000	2.75917E-001	0.00000E+000	9	...........	1467.52
	1025	10.26	2.74909E-001	-2.50348E-007	0.00000E+000	2.74917E-001	0.00000E+000	9	...........	1467.52
	1026	10.27	2.73907E-001	-3.38239E-007	0.00000E+000	2.73917E-001	0.00000E+000	9	...........	1467.52
	1027	10.28	2.72918E-001	-3.37068E-007	0.00000E+000	2.72918E-001	0.00000E+000	9	...........	1467.52
	1028	10.29	2.71921E-001	-4.21894E-007	0.00000E+000	2.71918E-001	0.00000E+000	9	...........	1467.52
	1029	10.3	2.70927E-001	-4.29083E-007	0.00000E+000	2.70918E-001	0.00000E+000	9	...........	1467.52
	1030	10.31	2.69931E-001	-5.05604E-007	0.00000E+000	2.69919E-001	0.00000E+000	9	...........	1467.52
	1031	10.32	2.68938E-001	-5.00867E-007	0.00000E+000	2.68919E-001	0.00000E+000	9	...........	1467.52
	1032	10.33	2.67904E-001	-5.72874E-007	0.00000E+000	2.67919E-001	0.00000E+000	9	...........	1467.52
	1033	10.34	2.66898E-001	-5.66855E-007	0.00000E+000	2.66920E-001	0.00000E+000	9	...........	1467.52
	1034	10.35	2.65908E-001	-6.47946E-007	0.00000E+000	2.65920E-001	0.00000E+000	9	...........	1467.52
	1035	10.36	2.64911E-001	-6.47779E-007	0.00000E+000	2.64921E-001	0.00000E+000	9	...........	1467.52
	1036	10.37	2.63915E-001	-7.15215E-007	0.00000E+000	2.63921E-001	0.00000E+000	9	...........	1467.52
	1037	10.38	2.62915E-001	-7.10979E-007	0.00000E+000	2.62921E-001	0.00000E+000	9	...........	1467.52
	1038	10.39	2.61909E-001	-7.84770E-007	0.00000E+000	2.61922E-001	0.00000E+000	9	...........	1467.52
	1039	10.4	2.60915E-001	-7.88225E-007	0.00000E+000	2.60922E-001	0.00000E+000	9	...........	1467.52
	1040	10.41	2.59906E-001	-8.61235E-007	0.00000E+000	2.59922E-001	0.00000E+000	9	...........	1467.52
	1041	10.42	2.58920E-001	-8.48751E-007	0.00000E+000	2.58923E-001	0.00000E+000	9	...........	1467.52
	1042	10.43	2.57918E-001	-9.21928E-007	0.00000E+000	2.57923E-001	0.00000E+000	9	...........	1467.52
	1043	10.44	2.56923E-001	-9.16968E-007	0.00000E+000	2.56923E-001	0.00000E+000	9	...........	1467.52
	1044	10.45	2.55910E-001	-9.80670E-007	0.00000E+000	2.55924E-001	0.00000E+000	9	...........	1467.52
	1045	10.46	2.54902E-001	-9.85630E-007	0.00000E+000	2.54924E-001	0.00000E+000	9	...........	1467.52
	1046	10.47	2.53903E-001	-1.04878E-006	0.00000E+000	2.53924E-001	0.00000E+000	9	...........	1467.52
	1047	10.48	2.52915E-001	-1.04632E-006	0.00000E+000	2.52925E-001	0.00000E+000	9	...........	1467.52
	1048	10.49	2.51930E-001	-1.09386E-006	0.00000E+000	2.51938E-001	0.00000E+000	9	...........	1467.52
	1049	10.5	2.50936E-001	-1.09370E-006	0.00000E+000	2.50938E-001	0.00000E+000	9	...........	1467.52
	1050	10.51	2.49937E-001	-1.16565E-006	0.00000E+000	2.49938E-001	0.00000E+000	9	...........	1467.52
	1051	10.52	2.48930E-001	-1.16492E-006	0.00000E+000	2.48939E-001	0.00000E+000	9	...........	1467.52
	1052	10.53	2.47933E-001	-1.22634E-006	0.00000E+000	2.47939E-001	0.00000E+000	9	...........	1467.52
	1053	10.54	2.46939E-001	-1.22406E-006	0.00000E+000	2.46939E-001	0.00000E+000	9	...........	1467.52
	1054	10.55	2.45939E-001	-1.28514E-006	0.00000E+000	2.45940E-001	0.00000E+000	9	...........	1467.52
	1055	10.56	2.44952E-001	-1.27951E-006	0.00000E+000	2.44940E-001	0.00000E+000	9	...........	1467.52
	1056	10.57	2.43956E-001	-1.34929E-006	0.00000E+000	2.43940E-001	0.00000E+000	9	...........	1467.52
	1057	10.58	2.42928E-001	-1.33000E-006	0.00000E+000	2.42941E-001	0.00000E+000	9	...........	1467.52
	1058	10.59	2.41939E-001	-1.40279E-006	0.00000E+000	2.41941E-001	0.00000E+000	9	...........	1467.52
	1059	10.6	2.40933E-001	-1.39198E-006	0.00000E+000	2.40941E-001	0.00000E+000	9	...........	1467.52
	1060	10.61	2.39952E-001	-1.45813E-006	0.00000E+000	2.39942E-001	0.00000E+000	9	...........	1467.52
	1061	10.62	2.38942E-001	-1.45089E-006	0.00000E+000	2.38942E-001	0.00000E+000	9	...........	1467.52
	1062	10.63	2.37942E-001	-1.52055E-006	0.00000E+000	2.37942E-001	0.00000E+000	9	...........	1467.52
	1063	10.64	2.36941E-001	-1.50790E-006	0.00000E+000	2.36943E-001	0.00000E+000	9	...........	1467.52
	1064	10.65	2.35947E-001	-1.57211E-006	0.00000E+000	2.35943E-001	0.00000E+000	9	...........	1467.52
	1065	10.66	2.34949E-001	-1.55533E-006	0.00000E+000	2.34943E-001	0.00000E+000	9	...........	1467.52
	1066	10.67	2.33960E-001	-1.62026E-006	0.00000E+000	2.33944E-001	0.00000E+000	9	...........	1467.52
	1067	10.68	2.32962E-001	-1.61179E-006	0.00000E+000	2.32944E-001	0.00000E+000	9	...........	1467.52
	1068	10.69	2.31958E-001	-1.67270E-006	0.00000E+000	2.31945E-001	0.00000E+000	9	...........	1467.52
	1069	10.7	2.30959E-001	-1.65665E-006	0.00000E+000	2.30945E-001	0.00000E+000	9	...........	1467.52
	1070	10.71	2.29944E-001	-1.72582E-006	0.00000E+000	2.29945E-001	0.00000E+000	9	...........	1467.52
	1071	10.72	2.28948E-001	-1.70692E-006	0.00000E+000	2.28946E-001	0.00000E+000	9	...........	1467.52
	1072	10.73	2.27946E-001	-1.78506E-006	0.00000E+000	2.27946E-001	0.00000E+000	9	...........	1467.52
	1073	10.74	2.26941E-001	-1.76294E-006	0.00000E+000	2.26946E-001	0.00000E+000	9	...........	1467.52
	1074	10.75	2.25936E-001	-1.82469E-006	0.00000E+000	2.25947E-001	0.00000E+000	9	...........	1467.52
	1075	10.76	2.24945E-001	-1.81410E-006	0.00000E+000	2.24947E-001	0.00000E+000	9	...........	1467.52
	1076	10.77	2.23961E-001	-1.88114E-006	0.00000E+000	2.23947E-001	0.00000E+000	9	...........	1467.52
	1077	10.78	2.22953E-001	-1.85712E-006	0.00000E+000	2.22948E-001	0.00000E+000	9	...........	1467.52
	1078	10.79	2.21954E-001	-1.93526E-006	0.00000E+000	2.21948E-001	0.00000E+000	9	...........	1467.52
	1079	10.8	2.20960E-001	-1.91514E-006	0.00000E+000	2.20948E-001	0.00000E+000	9	...........	1467.52
	1080	10.81	2.19949E-001	-1.98358E-006	0.00000E+000	2.19949E-001	0.00000E+000	9	...........	1467.52
	1081	10.82	2.18951E-001	-1.97104E-006	0.00000E+000	2.18949E-001	0.00000E+000	9	...........	1467.52
	1082	10.83	2.17959E-001	-2.03625E-006	0.00000E+000	2.17949E-001	0.00000E+000	9	...........	1467.52
	1083	10.84	2.16930E-001	-2.02081E-006	0.00000E+000	2.16950E-001	0.00000E+000	9	...........	1467.52
	1084	10.85	2.15939E-001	-2.08613E-006	0.00000E+000	2.15950E-001	0.00000E+000	9	...........	1467.52
	1085	10.86	2.14937E-001	-2.07459E-006	0.00000E+000	2.14950E-001	0.00000E+000	9	...........	1467.52
	1086	10.87	2.13935E-001	-2.14404E-006	0.00000E+000	2.13951E-001	0.00000E+000	9	...........	1467.52
	1087	10.88	2.12943E-001	-2.12782E-006	0.00000E+000	2.12951E-001	0.00000E+000	9	...........	1467.52
	1088	10.89	2.11953E-001	-2.18935E-006	0.00000E+000	2.11951E-001	0.00000E+000	9	...........	1467.52
	1089	10.9	2.10944E-001	-2.17068E-006	0.00000E+000	2.10952E-001	0.00000E+000	9	...........	1467.52
	1090	10.91	2.09951E-001	-2.24357E-006	0.00000E+000	2.09952E-001	0.00000E+000	9	...........	1467.52
	1091	10.92	2.08952E-001	-2.23159E-006	0.00000E+000	2.08953E-001	0.00000E+000	9	...........	1467.52
	1092	10.93	2.07961E-001	-2.29574E-006	0.00000E+000	2.07953E-001	0.00000E+000	9	...........	1467.52
	1093	10.94	2.06955E-001	-2.28376E-006	0.00000E+000	2.06953E-001	0.00000E+000	9	...........	1467.52
	1094	10.95	2.05971E-001	-2.34623E-006	0.00000E+000	2.05954E-001	0.00000E+000	9	...........	1467.52
	1095	10.96	2.04973E-001	-2.33158E-006	0.00000E+000	2.04954E-001	0.00000E+000	9	...........	1467.52
	1096	10.97	2.03963E-001	-2.40013E-006	0.00000E+000	2.03954E-001	0.00000E+000	9	...........	1467.52
	1097	10.98	2.02957E-001	-2.37951E-006	0.00000E+000	2.02955E-001	0.00000E+000	9	...........	1467.52
	1098	10.99	2.01956E-001	-2.45241E-006	0.00000E+000	2.01955E-001	0.00000E+000	9	...........	1467.52
	1099	11	2.00951E-001	-2.44009E-006	0.00000E+000	2.00955E-001	0.00000E+000	9	...........	1467.52
	1100	11.01	1.99963E-001	-2.49877E-006	0.00000E+000	1.99956E-001	0.00000E+000	9	...........	1467.52
	1101	11.02	1.98974E-001	-2.47548E-006	0.00000E+000	1.98956E-001	0.00000E+000	9	...........	1467.52
	1102	11.03	1.97962E-001	-2.54102E-006	0.00000E+000	1.97956E-001	0.00000E+000	9	...........	1467.52
	1103	11.04	1.96963E-001	-2.53617E-006	0.00000E+000	1.96957E-001	0.00000E+000	9	...........	1467.52
	1104	11.05	1.95965E-001	-2.59870E-006	0.00000E+000	1.95957E-001	0.00000E+000	9	...........	1467.52
	1105	11.06	1.94962E-001	-2.58912E-006	0.00000E+000	1.94957E-001	0.00000E+000	9	...........	1467.52
	1106	11.07	1.93981E-001	-2.65137E-006	0.00000E+000	1.93958E-001	0.00000E+000	9	...........	1467.52
	1107	11.08	1.92985E-001	-2.63443E-006	0.00000E+000	1.92958E-001	0.00000E+000	9	...........	1467.52
	1108	11.09	1.91997E-001	-2.70487E-006	0.00000E+000	1.91958E-001	0.00000E+000	9	...........	1467.52
	1109	11.1	1.90957E-001	-2.68654E-006	0.00000E+000	1.90959E-001	0.00000E+000	9	...........	1467.52
	1110	11.11	1.89958E-001	-2.76295E-006	0.00000E+000	1.89959E-001	0.00000E+000	9	...........	1467.52
	1111	11.12	1.88962E-001	-2.74612E-006	0.00000E+000	1.88960E-001	0.00000E+000	9	...........	1467.52
	1112	11.13	1.87968E-001	-2.80859E-006	0.00000E+000	1.87960E-001	0.00000E+000	9	...........	1467.52
	1113	11.14	1.86969E-001	-2.80636E-006	0.00000E+000	1.86960E-001	0.00000E+000	9	...........	1467.52
	1114	11.15	1.85974E-001	-2.86126E-006	0.00000E+000	1.85961E-001	0.00000E+000	9	...........	1467.52
	1115	11.16	1.84964E-001	-2.85402E-006	0.00000E+000	1.84961E-001	0.00000E+000	9	...........	1467.52
	1116	11.17	1.83971E-001	-2.91616E-006	0.00000E+000	1.83961E-001	0.00000E+000	9	...........	1467.52
	1117	11.18	1.82972E-001	-2.90652E-006	0.00000E+000	1.82962E-001	0.00000E+000	9	...........	1467.52
	1118	11.19	1.81984E-001	-2.97317E-006	0.00000E+000	1.81962E-001	0.00000E+000	9	...........	1467.52
	1119	11.2	1.80983E-001	-2.95824E-006	0.00000E+000	1.80962E-001	0.00000E+000	9	...........	1467.52
	1120	11.21	1.79970E-001	-3.01893E-006	0.00000E+000	1.79963E-001	0.00000E+000	9	...........	1467.52
	1121	11.22	1.78956E-001	-3.01040E-006	0.00000E+000	1.78963E-001	0.00000E+000	9	...........	1467.52
	1122	11.23	1.77962E-001	-3.07778E-006	0.00000E+000	1.77963E-001	0.00000E+000	9	...........	1467.52
	1123	11.24	1.76965E-001	-3.06898E-006	0.00000E+000	1.76964E-001	0.00000E+000	9	...........	1467.52
	1124	11.25	1.75983E-001	-3.13842E-006	0.00000E+000	1.75964E-001	0.00000E+000	9	...........	1467.52
	1125	11.26	1.74978E-001	-3.12376E-006	0.00000E+000	1.74964E-001	0.00000E+000	9	...........	1467.52
	1126	11.27	1.73975E-001	-3.19538E-006	0.00000E+000	1.73965E-001	0.00000E+000	9	...........	1467.52
	1127	11.28	1.72983E-001	-3.18323E-006	0.00000E+000	1.72965E-001	0.00000E+000	9	...........	1467.52
	1128	11.29	1.71975E-001	-3.24414E-006	0.00000E+000	1.71965E-001	0.00000E+000	9	...........	1467.52
	1129	11.3	1.70977E-001	-3.23735E-006	0.00000E+000	1.70966E-001	0.00000E+000	9	...........	1467.52
	1130	11.31	1.69990E-001	-3.30779E-006	0.00000E+000	1.69966E-001	0.00000E+000	9	...........	1467.52
	1131	11.32	1.68983E-001	-3.29325E-006	0.00000E+000	1.68966E-001	0.00000E+000	9	...........	1467.52
	1132	11.33	1.67984E-001	-3.35979E-006	0.00000E+000	1.67967E-001	0.00000E+000	9	...........	1467.52
	1133	11.34	1.66991E-001	-3.35516E-006	0.00000E+000	1.66967E-001	0.00000E+000	9	...........	1467.52
	1134	11.35	1.65953E-001	-3.41095E-006	0.00000E+000	1.65968E-001	0.00000E+000	9	...........	1467.52
	1135	11.36	1.64958E-001	-3.40688E-006	0.00000E+000	1.64968E-001	0.00000E+000	9	...........	1467.52
	1136	11.37	1.63973E-001	-3.46786E-006	0.00000E+000	1.63968E-001	0.00000E+000	9	...........	1467.52
	1137	11.38	1.62966E-001	-3.46440E-006	0.00000E+000	1.62969E-001	0.00000E+000	9	...........	1467.52
	1138	11.39	1.61972E-001	-3.52387E-006	0.00000E+000	1.61969E-001	0.00000E+000	9	...........	1467.52
	1139	11.4	1.60979E-001	-3.52298E-006	0.00000E+000	1.60969E-001	0.00000E+000	9	...........	1467.52
	1140	11.41	1.59982E-001	-3.57854E-006	0.00000E+000	1.59970E-001	0.00000E+000	9	...........	1467.52
	1141	11.42	1.58975E-001	-3.56918E-006	0.00000E+000	1.58970E-001	0.00000E+000	9	...........	1467.52
	1142	11.43	1.57990E-001	-3.64169E-006	0.00000E+000	1.57970E-001	0.00000E+000	9	...........	1467.52
	1143	11.44	1.57000E-001	-3.62948E-006	0.00000E+000	1.56971E-001	0.00000E+000	9	...........	1467.52
	1144	11.45	1.55993E-001	-3.70154E-006	0.00000E+000	1.55971E-001	0.00000E+000	9	...........	1467.52
	1145	11.46	1.54991E-001	-3.68544E-006	0.00000E+000	1.54971E-001	0.00000E+000	9	...........	1467.52
	1146	11.47	1.53981E-001	-3.75599E-006	0.00000E+000	1.53972E-001	0.00000E+000	9	...........	1467.52
	1147	11.48	1.52970E-001	-3.74100E-006	0.00000E+000	1.52972E-001	0.00000E+000	9	...........	1467.52
	1148	11.49	1.51971E-001	-3.80810E-006	0.00000E+000	1.51972E-001	0.00000E+000	9	...........	1467.52
	1149	11.5	1.50971E-001	-3.80404E-006	0.00000E+000	1.50973E-001	0.00000E+000	9	...........	1467.52
	1150	11.51	1.49976E-001	-3.87053E-006	0.00000E+000	1.49973E-001	0.00000E+000	9	...........	1467.52
	1151	11.52	1.48975E-001	-3.86980E-006	0.00000E+000	1.48973E-001	0.00000E+000	9	...........	1467.52
	1152	11.53	1.47986E-001	-3.92314E-006	0.00000E+000	1.47974E-001	0.00000E+000	9	...........	1467.52
	1153	11.54	1.46984E-001	-3.91834E-006	0.00000E+000	1.46974E-001	0.00000E+000	9	...........	1467.52
	1154	11.55	1.45981E-001	-3.99548E-006	0.00000E+000	1.45975E-001	0.00000E+000	9	...........	1467.52
	1155	11.56	1.44986E-001	-3.98227E-006	0.00000E+000	1.44975E-001	0.00000E+000	9	...........	1467.52
	1156	11.57	1.43993E-001	-4.04826E-006	0.00000E+000	1.43975E-001	0.00000E+000	9	...........	1467.52
	1157	11.58	1.42993E-001	-4.03494E-006	0.00000E+000	1.42976E-001	0.00000E+000	9	...........	1467.52
	1158	11.59	1.41999E-001	-4.09769E-006	0.00000E+000	1.41976E-001	0.00000E+000	9	...........	1467.52
	1159	11.6	1.40998E-001	-4.09379E-006	0.00000E+000	1.40976E-001	0.00000E+000	9	...........	1467.52
	1160	11.61	1.39984E-001	-4.16212E-006	0.00000E+000	1.39977E-001	0.00000E+000	9	...........	1467.52
	1161	11.62	1.38981E-001	-4.14941E-006	0.00000E+000	1.38977E-001	0.00000E+000	9	...........	1467.52
	1162	11.63	1.37992E-001	-4.22582E-006	0.00000E+000	1.37977E-001	0.00000E+000	9	...........	1467.52
	1163	11.64	1.36987E-001	-4.21150E-006	0.00000E+000	1.36978E-001	0.00000E+000	9	...........	1467.52
	1164	11.65	1.35987E-001	-4.28183E-006	0.00000E+000	1.35978E-001	0.00000E+000	9	...........	1467.52
	1165	11.66	1.34991E-001	-4.26478E-006	0.00000E+000	1.34978E-001	0.00000E+000	9	...........	1467.52
	1166	11.67	1.33993E-001	-4.34019E-006	0.00000E+000	1.33979E-001	0.00000E+000	9	...........	1467.52
	1167	11.68	1.32997E-001	-4.32313E-006	0.00000E+000	1.32979E-001	0.00000E+000	9	...........	1467.52
	1168	11.69	1.31998E-001	-4.39085E-006	0.00000E+000	1.31979E-001	0.00000E+000	9	...........	1467.52
	1169	11.7	1.31001E-001	-4.38494E-006	0.00000E+000	1.30980E-001	0.00000E+000	9	...........	1467.52
	1170	11.71	1.30006E-001	-4.43471E-006	0.00000E+000	1.29993E-001	0.00000E+000	9	...........	1467.52
	1171	11.72	1.29011E-001	-4.44290E-006	0.00000E+000	1.28993E-001	0.00000E+000	9	...........	1467.52
	1172	11.73	1.28013E-001	-4.50465E-006	0.00000E+000	1.27993E-001	0.00000E+000	9	...........	1467.52
	1173	11.74	1.26998E-001	-4.49362E-006	0.00000E+000	1.26994E-001	0.00000E+000	9	...........	1467.52
	1174	11.75	1.26000E-001	-4.57214E-006	0.00000E+000	1.25994E-001	0.00000E+000	9	...........	1467.52
	1175	11.76	1.25003E-001	-4.55983E-006	0.00000E+000	1.24994E-001	0.00000E+000	9	...........	1467.52
	1176	11.77	1.23999E-001	-4.63061E-006	0.00000E+000	1.23995E-001	0.00000E+000	9	...........	1467.52
	1177	11.78	1.23000E-001	-4.62314E-006	0.00000E+000	1.22995E-001	0.00000E+000	9	...........	1467.52
	1178	11.79	1.22009E-001	-4.69024E-006	0.00000E+000	1.21995E-001	0.00000E+000	9	...........	1467.52
	1179	11.8	1.21006E-001	-4.68311E-006	0.00000E+000	1.20996E-001	0.00000E+000	9	...........	1467.52
	1180	11.81	1.20016E-001	-4.75038E-006	0.00000E+000	1.19996E-001	0.00000E+000	9	...........	1467.52
	1181	11.82	1.19011E-001	-4.74637E-006	0.00000E+000	1.18996E-001	0.00000E+000	9	...........	1467.52
	1182	11.83	1.18014E-001	-4.81235E-006	0.00000E+000	1.17997E-001	0.00000E+000	9	...........	1467.52
	1183	11.84	1.17021E-001	-4.80600E-006	0.00000E+000	1.16997E-001	0.00000E+000	9	...........	1467.52
	1184	11.85	1.16030E-001	-4.87093E-006	0.00000E+000	1.15997E-001	0.00000E+000	9	...........	1467.52
	1185	11.86	1.15018E-001	-4.86725E-006	0.00000E+000	1.14998E-001	0.00000E+000	9	...........	1467.52
	1186	11.87	1.13997E-001	-4.93491E-006	0.00000E+000	1.13998E-001	0.00000E+000	9	...........	1467.52
	1187	11.88	1.13001E-001	-4.91312E-006	0.00000E+000	1.12999E-001	0.00000E+000	9	...........	1467.52
	1188	11.89	1.12005E-001	-5.00084E-006	0.00000E+000	1.11999E-001	0.00000E+000	9	...........	1467.52
	1189	11.9	1.11013E-001	-4.98891E-006	0.00000E+000	1.10999E-001	0.00000E+000	9	...........	1467.52
	1190	11.91	1.10009E-001	-5.06131E-006	0.00000E+000	1.10000E-001	0.00000E+000	9	...........	1467.52
	1191	11.92	1.09016E-001	-5.04665E-006	0.00000E+000	1.09000E-001	0.00000E+000	9	...........	1467.52
	1192	11.93	1.08007E-001	-5.12111E-006	0.00000E+000	1.08000E-001	0.00000E+000	9	...........	1467.52
	1193	11.94	1.07012E-001	-5.10907E-006	0.00000E+000	1.07001E-001	0.00000E+000	9	...........	1467.52
	1194	11.95	1.06012E-001	-5.18844E-006	0.00000E+000	1.06001E-001	0.00000E+000	9	...........	1467.52
	1195	11.96	1.05005E-001	-5.17790E-006	0.00000E+000	1.05001E-001	0.00000E+000	9	...........	1467.52
	1196	11.97	1.04023E-001	-5.24908E-006	0.00000E+000	1.04002E-001	0.00000E+000	9	...........	1467.52
	1197	11.98	1.03026E-001	-5.24055E-006	0.00000E+000	1.03002E-001	0.00000E+000	9	...........	1467.52
	1198	11.99	1.02005E-001	-5.31116E-006	0.00000E+000	1.02002E-001	0.00000E+000	9	...........	1467.52
	1199	12	1.01009E-001	-5.30748E-006	0.00000E+000	1.01003E-001	0.00000E+000	9	...........	1467.52
	1200	12.01	1.00015E-001	-5.37564E-006	0.00000E+000	1.00003E-001	0.00000E+000	9	...........	1467.52
CURVE4	TABLE
	Pt	T	Vf	Im	Vu	Sig	Ach	IERange	Over	Temp
	#	s	V vs. Ref.	A	V	V	V	#	bits	deg C
	1201	12.02	9.99880E-002	-3.89220E-006	0.00000E+000	1.00003E-001	0.00000E+000	9	...........	1467.52