File: input/ECSA_test/CV_ECSA_#2_#8.DTA
EXPLAIN
TAG	CV
TITLE	LABEL	ECSA	Test Identifier
DATE	LABEL	2/13/2024	Date
TIME	LABEL	12:05:26	Time
NOTES	NOTES	1	Notes...

PSTAT	PSTAT	IFC1010-36068	Potentiostat
VINIT	POTEN	1.00000E-001	F	Initial E (V)
VLIMIT1	POTEN	3.00000E-001	F	Scan Limit 1 (V)
VLIMIT2	POTEN	1.00000E-001	F	Scan Limit 2 (V)
VFINAL	POTEN	1.00000E-001	F	Final E (V)
SCANRATE	QUANT	8.00115E+001	A Real Number
STEPSIZE	QUANT	1.00000E+000	Step Size (mV)
CYCLES	IQUANT	3	Cycles (#)
IMODE	SELECTOR	1	I/E Range Mode
IRANGE	QUANT	3.00000E-001	Max Current (mA)
AREA	QUANT	1.00000E+000	Sample Area (cm^2)
EQDELAY	QUANT	0.00000E+000	Equil. Time (s)
IRCOMP	SELECTOR	0	IRComp
PFCOR	QUANT	5.00000E+001	PF Corr. (ohm)
SAMPLINGMODE	SELECTOR	2	Sampling Mode
EOC	QUANT	0.3246219	Open Circuit (V)
ELECTRODETYPE	SELECTOR	0	Electrode Type
STRIPPING	TOGGLE	F	Used for Stripping
SEQUENCER	TOGGLE	TRUE	Run as Sequence
PSTATMODEL	IQUANT	64	Pstat Model
PSTATSECTION	LABEL	IFC1010-36068	Pstat Section
PSTATSERIALNO	LABEL	36068	Pstat Serial Number
CTRLMODE	IQUANT	1	Control Mode
ELECTROMETER	IQUANT	0	RE=0 or CS=1
IESTAB	IQUANT	2	I/E Stability
CASPEED	IQUANT	4	Control Amp Speed
CONVENTION	IQUANT	1	Current Convention
ICHRANGE	IQUANT	2	Ich Range
ICHRANGEMODE	TOGGLE	F	Ich Auto Range
ICHOFFSETENABLE	TOGGLE	F	Ich Offset Enable
ICHOFFSET	QUANT	0	Ich Offset (V)
ICHFILTER	IQUANT	3	Ich Filter
VCHRANGE	IQUANT	2	Vch Range
VCHRANGEMODE	TOGGLE	F	Vch Auto Range
VCHOFFSETENABLE	TOGGLE	F	Vch Offset Enable
VCHOFFSET	QUANT	0	Vch Offset (V)
VCHFILTER	IQUANT	3	Vch Filter
IERANGELOWERLIMIT	IQUANT	4	I/E Range Lower Limit
IERANGEMODE	TOGGLE	F	I/E AutoRange
IERANGE	IQUANT	9	I/E Range
ACHSELECT	IQUANT	0	Ach Select
ACHRANGE	IQUANT	2	Ach Range
ACHOFFSETENABLE	TOGGLE	F	Ach Offset Enable
ACHOFFSET	QUANT	0	Ach Offset (V)
ACHFILTER	IQUANT	1	Ach Filter
SENSECABLEID	IQUANT	13	Sense Cable ID
PWRCABLEID	IQUANT	13	Power Cable ID
DCCALDATE	LABEL	8/11/2023	DC Calibration Date
ACCALDATE	LABEL	6/2/2023	AC Calibration Date
FRAMEWORKVERSION	LABEL	7.10.3	Framework Version
INSTRUMENTVERSION	LABEL	4.91	Instrument Version
COMMVERSION	LABEL	3.10	Communications Version
CPUPLDVERSION	LABEL	2.22	CPU PLD Version
CTRLPLDVERSION	LABEL	0.00	CTRL PLD Version
PSTATPLDVERSION	LABEL	0.00	PSTAT PLD Version
CURVE1	TABLE
	Pt	T	Vf	Im	Vu	Sig	Ach	IERange	Over	Temp
	#	s	V vs. Ref.	A	V	V	V	#	bits	deg C
	0	0.0125	9.99906E-002	-3.13224E-006	0.00000E+000	1.00003E-001	0.00000E+000	9	...........	1467.52
	1	0.025	1.00967E-001	-1.89001E-006	0.00000E+000	1.01003E-001	0.00000E+000	9	...........	1467.52
	2	0.0375	1.01958E-001	-1.71214E-006	0.00000E+000	1.02002E-001	0.00000E+000	9	...........	1467.52
	3	0.05	1.02982E-001	-1.57691E-006	0.00000E+000	1.03002E-001	0.00000E+000	9	...........	1467.52
	4	0.0625	1.03978E-001	-1.50081E-006	0.00000E+000	1.04002E-001	0.00000E+000	9	...........	1467.52
	5	0.075	1.04964E-001	-1.37530E-006	0.00000E+000	1.05001E-001	0.00000E+000	9	...........	1467.52
	6	0.0875	1.05962E-001	-1.29875E-006	0.00000E+000	1.06001E-001	0.00000E+000	9	...........	1467.52
	7	0.1	1.06961E-001	-1.22679E-006	0.00000E+000	1.07001E-001	0.00000E+000	9	...........	1467.52
	8	0.1125	1.07963E-001	-1.12734E-006	0.00000E+000	1.08000E-001	0.00000E+000	9	...........	1467.52
	9	0.125	1.08970E-001	-1.09022E-006	0.00000E+000	1.09000E-001	0.00000E+000	9	...........	1467.52
	10	0.1375	1.09964E-001	-1.00303E-006	0.00000E+000	1.10000E-001	0.00000E+000	9	...........	1467.52
	11	0.15	1.10959E-001	-9.22692E-007	0.00000E+000	1.10999E-001	0.00000E+000	9	...........	1467.52
	12	0.1625	1.11956E-001	-8.98854E-007	0.00000E+000	1.11999E-001	0.00000E+000	9	...........	1467.52
	13	0.175	1.12955E-001	-8.02523E-007	0.00000E+000	1.12999E-001	0.00000E+000	9	...........	1467.52
	14	0.1875	1.13951E-001	-7.55115E-007	0.00000E+000	1.13998E-001	0.00000E+000	9	...........	1467.52
	15	0.2	1.14964E-001	-7.08955E-007	0.00000E+000	1.14998E-001	0.00000E+000	9	...........	1467.52
	16	0.2125	1.15977E-001	-6.26392E-007	0.00000E+000	1.15997E-001	0.00000E+000	9	...........	1467.52
	17	0.225	1.16972E-001	-5.96851E-007	0.00000E+000	1.16997E-001	0.00000E+000	9	...........	1467.52
	18	0.2375	1.17966E-001	-5.38571E-007	0.00000E+000	1.17997E-001	0.00000E+000	9	...........	1467.52
	19	0.25	1.18984E-001	-4.51018E-007	0.00000E+000	1.19009E-001	0.00000E+000	9	...........	1467.52
	20	0.2625	1.19986E-001	-4.48032E-007	0.00000E+000	1.20009E-001	0.00000E+000	9	...........	1467.52
	21	0.275	1.20980E-001	-3.69836E-007	0.00000E+000	1.21008E-001	0.00000E+000	9	...........	1467.52
	22	0.2875	1.21980E-001	-3.33567E-007	0.00000E+000	1.22008E-001	0.00000E+000	9	...........	1467.52
	23	0.3	1.22968E-001	-3.07591E-007	0.00000E+000	1.23008E-001	0.00000E+000	9	...........	1467.52
	24	0.3125	1.23966E-001	-2.15804E-007	0.00000E+000	1.24007E-001	0.00000E+000	9	...........	1467.52
	25	0.325	1.24972E-001	-2.05958E-007	0.00000E+000	1.25007E-001	0.00000E+000	9	...........	1467.52
	26	0.3375	1.25968E-001	-1.50396E-007	0.00000E+000	1.26006E-001	0.00000E+000	9	...........	1467.52
	27	0.35	1.26967E-001	-8.67692E-008	0.00000E+000	1.27006E-001	0.00000E+000	9	...........	1467.52
	28	0.3625	1.27980E-001	-7.98629E-008	0.00000E+000	1.28006E-001	0.00000E+000	9	...........	1467.52
	29	0.375	1.28981E-001	-1.44096E-008	0.00000E+000	1.29005E-001	0.00000E+000	9	...........	1467.52
	30	0.3875	1.29981E-001	2.35970E-008	0.00000E+000	1.30005E-001	0.00000E+000	9	...........	1467.52
	31	0.4	1.30987E-001	4.84595E-008	0.00000E+000	1.31005E-001	0.00000E+000	9	...........	1467.52
	32	0.4125	1.31987E-001	1.24116E-007	0.00000E+000	1.32004E-001	0.00000E+000	9	...........	1467.52
	33	0.425	1.32983E-001	1.34186E-007	0.00000E+000	1.33004E-001	0.00000E+000	9	...........	1467.52
	34	0.4375	1.33972E-001	1.80168E-007	0.00000E+000	1.34004E-001	0.00000E+000	9	...........	1467.52
	35	0.45	1.34973E-001	2.38047E-007	0.00000E+000	1.35003E-001	0.00000E+000	9	...........	1467.52
	36	0.4625	1.35968E-001	2.45221E-007	0.00000E+000	1.36003E-001	0.00000E+000	9	...........	1467.52
	37	0.475	1.36964E-001	3.05773E-007	0.00000E+000	1.37003E-001	0.00000E+000	9	...........	1467.52
	38	0.4875	1.37972E-001	3.35135E-007	0.00000E+000	1.38002E-001	0.00000E+000	9	...........	1467.52
	39	0.5	1.38960E-001	3.55319E-007	0.00000E+000	1.39002E-001	0.00000E+000	9	...........	1467.52
	40	0.5125	1.39953E-001	4.28437E-007	0.00000E+000	1.40002E-001	0.00000E+000	9	...........	1467.52
	41	0.525	1.40980E-001	4.36145E-007	0.00000E+000	1.41001E-001	0.00000E+000	9	...........	1467.52
	42	0.5375	1.41971E-001	4.69919E-007	0.00000E+000	1.42001E-001	0.00000E+000	9	...........	1467.52
	43	0.55	1.42971E-001	5.31674E-007	0.00000E+000	1.43001E-001	0.00000E+000	9	...........	1467.52
	44	0.5625	1.43958E-001	5.25391E-007	0.00000E+000	1.44000E-001	0.00000E+000	9	...........	1467.52
	45	0.575	1.44966E-001	6.04122E-007	0.00000E+000	1.45012E-001	0.00000E+000	9	...........	1467.52
	46	0.5875	1.45967E-001	6.18781E-007	0.00000E+000	1.46012E-001	0.00000E+000	9	...........	1467.52
	47	0.6	1.46975E-001	6.28673E-007	0.00000E+000	1.47012E-001	0.00000E+000	9	...........	1467.52
	48	0.6125	1.47968E-001	6.99250E-007	0.00000E+000	1.48011E-001	0.00000E+000	9	...........	1467.52
	49	0.625	1.48957E-001	6.94305E-007	0.00000E+000	1.49011E-001	0.00000E+000	9	...........	1467.52
	50	0.6375	1.49960E-001	7.31999E-007	0.00000E+000	1.50011E-001	0.00000E+000	9	...........	1467.52
	51	0.65	1.50960E-001	7.95982E-007	0.00000E+000	1.51010E-001	0.00000E+000	9	...........	1467.52
	52	0.6625	1.51949E-001	7.82482E-007	0.00000E+000	1.52010E-001	0.00000E+000	9	...........	1467.52
	53	0.675	1.52953E-001	8.43167E-007	0.00000E+000	1.53010E-001	0.00000E+000	9	...........	1467.52
	54	0.6875	1.53963E-001	8.70792E-007	0.00000E+000	1.54009E-001	0.00000E+000	9	...........	1467.52
	55	0.7	1.54978E-001	8.78768E-007	0.00000E+000	1.55009E-001	0.00000E+000	9	...........	1467.52
	56	0.7125	1.55977E-001	9.46672E-007	0.00000E+000	1.56009E-001	0.00000E+000	9	...........	1467.52
	57	0.725	1.56986E-001	9.56697E-007	0.00000E+000	1.57008E-001	0.00000E+000	9	...........	1467.52
	58	0.7375	1.57974E-001	9.78441E-007	0.00000E+000	1.58008E-001	0.00000E+000	9	...........	1467.52
	59	0.75	1.58967E-001	1.03623E-006	0.00000E+000	1.59007E-001	0.00000E+000	9	...........	1467.52
	60	0.7625	1.59969E-001	1.03039E-006	0.00000E+000	1.60007E-001	0.00000E+000	9	...........	1467.52
	61	0.775	1.60967E-001	1.08039E-006	0.00000E+000	1.61007E-001	0.00000E+000	9	...........	1467.52
	62	0.7875	1.61964E-001	1.11403E-006	0.00000E+000	1.62006E-001	0.00000E+000	9	...........	1467.52
	63	0.8	1.62961E-001	1.11661E-006	0.00000E+000	1.63006E-001	0.00000E+000	9	...........	1467.52
	64	0.8125	1.63969E-001	1.18010E-006	0.00000E+000	1.64006E-001	0.00000E+000	9	...........	1467.52
	65	0.825	1.64951E-001	1.18723E-006	0.00000E+000	1.65005E-001	0.00000E+000	9	...........	1467.52
	66	0.8375	1.65952E-001	1.21040E-006	0.00000E+000	1.66005E-001	0.00000E+000	9	...........	1467.52
	67	0.85	1.66980E-001	1.26913E-006	0.00000E+000	1.67005E-001	0.00000E+000	9	...........	1467.52
	68	0.8625	1.67976E-001	1.26191E-006	0.00000E+000	1.68004E-001	0.00000E+000	9	...........	1467.52
	69	0.875	1.68976E-001	1.30736E-006	0.00000E+000	1.69004E-001	0.00000E+000	9	...........	1467.52
	70	0.8875	1.69988E-001	1.35303E-006	0.00000E+000	1.70016E-001	0.00000E+000	9	...........	1467.52
	71	0.9	1.70973E-001	1.34109E-006	0.00000E+000	1.71016E-001	0.00000E+000	9	...........	1467.52
	72	0.9125	1.71977E-001	1.39304E-006	0.00000E+000	1.72015E-001	0.00000E+000	9	...........	1467.52
	73	0.925	1.72985E-001	1.40591E-006	0.00000E+000	1.73015E-001	0.00000E+000	9	...........	1467.52
	74	0.9375	1.73981E-001	1.42351E-006	0.00000E+000	1.74015E-001	0.00000E+000	9	...........	1467.52
	75	0.95	1.74981E-001	1.48050E-006	0.00000E+000	1.75014E-001	0.00000E+000	9	...........	1467.52
	76	0.9625	1.75989E-001	1.47159E-006	0.00000E+000	1.76014E-001	0.00000E+000	9	...........	1467.52
	77	0.975	1.76970E-001	1.51726E-006	0.00000E+000	1.77014E-001	0.00000E+000	9	...........	1467.52
	78	0.9875	1.77971E-001	1.54533E-006	0.00000E+000	1.78013E-001	0.00000E+000	9	...........	1467.52
	79	1	1.78968E-001	1.55028E-006	0.00000E+000	1.79013E-001	0.00000E+000	9	...........	1467.52
	80	1.0125	1.79981E-001	1.61074E-006	0.00000E+000	1.80013E-001	0.00000E+000	9	...........	1467.52
	81	1.025	1.80995E-001	1.61404E-006	0.00000E+000	1.81012E-001	0.00000E+000	9	...........	1467.52
	82	1.0375	1.81991E-001	1.63289E-006	0.00000E+000	1.82012E-001	0.00000E+000	9	...........	1467.52
	83	1.05	1.82986E-001	1.68087E-006	0.00000E+000	1.83012E-001	0.00000E+000	9	...........	1467.52
	84	1.0625	1.83987E-001	1.67383E-006	0.00000E+000	1.84011E-001	0.00000E+000	9	...........	1467.52
	85	1.075	1.84987E-001	1.72409E-006	0.00000E+000	1.85011E-001	0.00000E+000	9	...........	1467.52
	86	1.0875	1.85995E-001	1.75136E-006	0.00000E+000	1.86011E-001	0.00000E+000	9	...........	1467.52
	87	1.1	1.86988E-001	1.75051E-006	0.00000E+000	1.87010E-001	0.00000E+000	9	...........	1467.52
	88	1.1125	1.87984E-001	1.80309E-006	0.00000E+000	1.88010E-001	0.00000E+000	9	...........	1467.52
	89	1.125	1.88978E-001	1.81000E-006	0.00000E+000	1.89010E-001	0.00000E+000	9	...........	1467.52
	90	1.1375	1.89969E-001	1.82804E-006	0.00000E+000	1.90009E-001	0.00000E+000	9	...........	1467.52
	91	1.15	1.90968E-001	1.87545E-006	0.00000E+000	1.91009E-001	0.00000E+000	9	...........	1467.52
	92	1.1625	1.92002E-001	1.86578E-006	0.00000E+000	1.92008E-001	0.00000E+000	9	...........	1467.52
	93	1.175	1.92995E-001	1.90726E-006	0.00000E+000	1.93008E-001	0.00000E+000	9	...........	1467.52
	94	1.1875	1.93994E-001	1.94384E-006	0.00000E+000	1.94008E-001	0.00000E+000	9	...........	1467.52
	95	1.2	1.94997E-001	1.95271E-006	0.00000E+000	1.95020E-001	0.00000E+000	9	...........	1467.52
	96	1.2125	1.96001E-001	1.99246E-006	0.00000E+000	1.96020E-001	0.00000E+000	9	...........	1467.52
	97	1.225	1.96992E-001	1.99660E-006	0.00000E+000	1.97019E-001	0.00000E+000	9	...........	1467.52
	98	1.2375	1.97988E-001	2.01963E-006	0.00000E+000	1.98019E-001	0.00000E+000	9	...........	1467.52
	99	1.25	1.98991E-001	2.06499E-006	0.00000E+000	1.99019E-001	0.00000E+000	9	...........	1467.52
	100	1.2625	1.99990E-001	2.05363E-006	0.00000E+000	2.00018E-001	0.00000E+000	9	...........	1467.52
	101	1.275	2.00970E-001	2.09997E-006	0.00000E+000	2.01018E-001	0.00000E+000	9	...........	1467.52
	102	1.2875	2.01977E-001	2.12670E-006	0.00000E+000	2.02017E-001	0.00000E+000	9	...........	1467.52
	103	1.3	2.02974E-001	2.12136E-006	0.00000E+000	2.03017E-001	0.00000E+000	9	...........	1467.52
	104	1.3125	2.03976E-001	2.18124E-006	0.00000E+000	2.04017E-001	0.00000E+000	9	...........	1467.52
	105	1.325	2.04986E-001	2.17830E-006	0.00000E+000	2.05016E-001	0.00000E+000	9	...........	1467.52
	106	1.3375	2.05984E-001	2.19991E-006	0.00000E+000	2.06016E-001	0.00000E+000	9	...........	1467.52
	107	1.35	2.06973E-001	2.25093E-006	0.00000E+000	2.07016E-001	0.00000E+000	9	...........	1467.52
	108	1.3625	2.07971E-001	2.23979E-006	0.00000E+000	2.08015E-001	0.00000E+000	9	...........	1467.52
	109	1.375	2.08973E-001	2.27784E-006	0.00000E+000	2.09015E-001	0.00000E+000	9	...........	1467.52
	110	1.3875	2.09961E-001	2.31041E-006	0.00000E+000	2.10015E-001	0.00000E+000	9	...........	1467.52
	111	1.4	2.10965E-001	2.30591E-006	0.00000E+000	2.11014E-001	0.00000E+000	9	...........	1467.52
	112	1.4125	2.11973E-001	2.35929E-006	0.00000E+000	2.12014E-001	0.00000E+000	9	...........	1467.52
	113	1.425	2.12962E-001	2.36005E-006	0.00000E+000	2.13014E-001	0.00000E+000	9	...........	1467.52
	114	1.4375	2.13952E-001	2.37306E-006	0.00000E+000	2.14013E-001	0.00000E+000	9	...........	1467.52
	115	1.45	2.14964E-001	2.42528E-006	0.00000E+000	2.15013E-001	0.00000E+000	9	...........	1467.52
	116	1.4625	2.15963E-001	2.41908E-006	0.00000E+000	2.16013E-001	0.00000E+000	9	...........	1467.52
	117	1.475	2.16959E-001	2.45682E-006	0.00000E+000	2.17012E-001	0.00000E+000	9	...........	1467.52
	118	1.4875	2.17986E-001	2.48935E-006	0.00000E+000	2.18012E-001	0.00000E+000	9	...........	1467.52
	119	1.5	2.18973E-001	2.47825E-006	0.00000E+000	2.19012E-001	0.00000E+000	9	...........	1467.52
	120	1.5125	2.19973E-001	2.53448E-006	0.00000E+000	2.20011E-001	0.00000E+000	9	...........	1467.52
	121	1.525	2.20991E-001	2.55699E-006	0.00000E+000	2.21023E-001	0.00000E+000	9	...........	1467.52
	122	1.5375	2.21985E-001	2.55739E-006	0.00000E+000	2.22023E-001	0.00000E+000	9	...........	1467.52
	123	1.55	2.22981E-001	2.60840E-006	0.00000E+000	2.23023E-001	0.00000E+000	9	...........	1467.52
	124	1.5625	2.23987E-001	2.59294E-006	0.00000E+000	2.24022E-001	0.00000E+000	9	...........	1467.52
	125	1.575	2.24980E-001	2.63389E-006	0.00000E+000	2.25022E-001	0.00000E+000	9	...........	1467.52
	126	1.5875	2.25970E-001	2.66481E-006	0.00000E+000	2.26022E-001	0.00000E+000	9	...........	1467.52
	127	1.6	2.26973E-001	2.65358E-006	0.00000E+000	2.27021E-001	0.00000E+000	9	...........	1467.52
	128	1.6125	2.27975E-001	2.70754E-006	0.00000E+000	2.28021E-001	0.00000E+000	9	...........	1467.52
	129	1.625	2.28978E-001	2.71543E-006	0.00000E+000	2.29021E-001	0.00000E+000	9	...........	1467.52
	130	1.6375	2.29975E-001	2.72233E-006	0.00000E+000	2.30020E-001	0.00000E+000	9	...........	1467.52
	131	1.65	2.30989E-001	2.77495E-006	0.00000E+000	2.31020E-001	0.00000E+000	9	...........	1467.52
	132	1.6625	2.31990E-001	2.76952E-006	0.00000E+000	2.32019E-001	0.00000E+000	9	...........	1467.52
	133	1.675	2.32990E-001	2.79928E-006	0.00000E+000	2.33019E-001	0.00000E+000	9	...........	1467.52
	134	1.6875	2.33993E-001	2.83738E-006	0.00000E+000	2.34019E-001	0.00000E+000	9	...........	1467.52
	135	1.7	2.34976E-001	2.81915E-006	0.00000E+000	2.35018E-001	0.00000E+000	9	...........	1467.52
	136	1.7125	2.35967E-001	2.86532E-006	0.00000E+000	2.36018E-001	0.00000E+000	9	...........	1467.52
	137	1.725	2.36973E-001	2.87882E-006	0.00000E+000	2.37018E-001	0.00000E+000	9	...........	1467.52
	138	1.7375	2.37968E-001	2.88608E-006	0.00000E+000	2.38017E-001	0.00000E+000	9	...........	1467.52
	139	1.75	2.38968E-001	2.93638E-006	0.00000E+000	2.39017E-001	0.00000E+000	9	...........	1467.52
	140	1.7625	2.39975E-001	2.93246E-006	0.00000E+000	2.40017E-001	0.00000E+000	9	...........	1467.52
	141	1.775	2.40962E-001	2.96846E-006	0.00000E+000	2.41016E-001	0.00000E+000	9	...........	1467.52
	142	1.7875	2.41970E-001	3.00380E-006	0.00000E+000	2.42016E-001	0.00000E+000	9	...........	1467.52
	143	1.8	2.42983E-001	2.99154E-006	0.00000E+000	2.43016E-001	0.00000E+000	9	...........	1467.52
	144	1.8125	2.43988E-001	3.03824E-006	0.00000E+000	2.44015E-001	0.00000E+000	9	...........	1467.52
	145	1.825	2.44985E-001	3.04675E-006	0.00000E+000	2.45015E-001	0.00000E+000	9	...........	1467.52
	146	1.8375	2.45989E-001	3.07865E-006	0.00000E+000	2.46027E-001	0.00000E+000	9	...........	1467.52
	147	1.85	2.46985E-001	3.11764E-006	0.00000E+000	2.47027E-001	0.00000E+000	9	...........	1467.52
	148	1.8625	2.47987E-001	3.10623E-006	0.00000E+000	2.48026E-001	0.00000E+000	9	...........	1467.52
	149	1.875	2.48985E-001	3.13283E-006	0.00000E+000	2.49026E-001	0.00000E+000	9	...........	1467.52
	150	1.8875	2.49986E-001	3.18336E-006	0.00000E+000	2.50026E-001	0.00000E+000	9	...........	1467.52
	151	1.9	2.50986E-001	3.15894E-006	0.00000E+000	2.51025E-001	0.00000E+000	9	...........	1467.52
	152	1.9125	2.51973E-001	3.20684E-006	0.00000E+000	2.52025E-001	0.00000E+000	9	...........	1467.52
	153	1.925	2.52963E-001	3.22939E-006	0.00000E+000	2.53025E-001	0.00000E+000	9	...........	1467.52
	154	1.9375	2.53951E-001	3.23063E-006	0.00000E+000	2.54024E-001	0.00000E+000	9	...........	1467.52
	155	1.95	2.54956E-001	3.29123E-006	0.00000E+000	2.55024E-001	0.00000E+000	9	...........	1467.52
	156	1.9625	2.55972E-001	3.27715E-006	0.00000E+000	2.56024E-001	0.00000E+000	9	...........	1467.52
	157	1.975	2.56985E-001	3.30892E-006	0.00000E+000	2.57023E-001	0.00000E+000	9	...........	1467.52
	158	1.9875	2.57976E-001	3.34755E-006	0.00000E+000	2.58023E-001	0.00000E+000	9	...........	1467.52
	159	2	2.58976E-001	3.34292E-006	0.00000E+000	2.59023E-001	0.00000E+000	9	...........	1467.52
	160	2.0125	2.59968E-001	3.38627E-006	0.00000E+000	2.60022E-001	0.00000E+000	9	...........	1467.52
	161	2.025	2.60966E-001	3.40347E-006	0.00000E+000	2.61022E-001	0.00000E+000	9	...........	1467.52
	162	2.0375	2.61963E-001	3.40378E-006	0.00000E+000	2.62022E-001	0.00000E+000	9	...........	1467.52
	163	2.05	2.62974E-001	3.46460E-006	0.00000E+000	2.63021E-001	0.00000E+000	9	...........	1467.52
	164	2.0625	2.63975E-001	3.46201E-006	0.00000E+000	2.64021E-001	0.00000E+000	9	...........	1467.52
	165	2.075	2.64973E-001	3.49089E-006	0.00000E+000	2.65020E-001	0.00000E+000	9	...........	1467.52
	166	2.0875	2.65979E-001	3.53161E-006	0.00000E+000	2.66020E-001	0.00000E+000	9	...........	1467.52
	167	2.1	2.66963E-001	3.51562E-006	0.00000E+000	2.67020E-001	0.00000E+000	9	...........	1467.52
	168	2.1125	2.67964E-001	3.56614E-006	0.00000E+000	2.68019E-001	0.00000E+000	9	...........	1467.52
	169	2.125	2.68991E-001	3.58731E-006	0.00000E+000	2.69019E-001	0.00000E+000	9	...........	1467.52
	170	2.1375	2.69987E-001	3.57978E-006	0.00000E+000	2.70019E-001	0.00000E+000	9	...........	1467.52
	171	2.15	2.70996E-001	3.65860E-006	0.00000E+000	2.71031E-001	0.00000E+000	9	...........	1467.52
	172	2.1625	2.71987E-001	3.64576E-006	0.00000E+000	2.72031E-001	0.00000E+000	9	...........	1467.52
	173	2.175	2.72986E-001	3.65949E-006	0.00000E+000	2.73030E-001	0.00000E+000	9	...........	1467.52
	174	2.1875	2.73979E-001	3.71452E-006	0.00000E+000	2.74030E-001	0.00000E+000	9	...........	1467.52
	175	2.2	2.74980E-001	3.70124E-006	0.00000E+000	2.75029E-001	0.00000E+000	9	...........	1467.52
	176	2.2125	2.75988E-001	3.74784E-006	0.00000E+000	2.76029E-001	0.00000E+000	9	...........	1467.52
	177	2.225	2.76984E-001	3.77703E-006	0.00000E+000	2.77029E-001	0.00000E+000	9	...........	1467.52
	178	2.2375	2.77986E-001	3.78050E-006	0.00000E+000	2.78028E-001	0.00000E+000	9	...........	1467.52
	179	2.25	2.78977E-001	3.83905E-006	0.00000E+000	2.79028E-001	0.00000E+000	9	...........	1467.52
	180	2.2625	2.79976E-001	3.83344E-006	0.00000E+000	2.80028E-001	0.00000E+000	9	...........	1467.52
	181	2.275	2.80979E-001	3.86516E-006	0.00000E+000	2.81027E-001	0.00000E+000	9	...........	1467.52
	182	2.2875	2.81983E-001	3.90482E-006	0.00000E+000	2.82027E-001	0.00000E+000	9	...........	1467.52
	183	2.3	2.82992E-001	3.90098E-006	0.00000E+000	2.83027E-001	0.00000E+000	9	...........	1467.52
	184	2.3125	2.84004E-001	3.94594E-006	0.00000E+000	2.84026E-001	0.00000E+000	9	...........	1467.52
	185	2.325	2.84993E-001	3.97726E-006	0.00000E+000	2.85026E-001	0.00000E+000	9	...........	1467.52
	186	2.3375	2.85991E-001	3.97072E-006	0.00000E+000	2.86026E-001	0.00000E+000	9	...........	1467.52
	187	2.35	2.86987E-001	4.03416E-006	0.00000E+000	2.87025E-001	0.00000E+000	9	...........	1467.52
	188	2.3625	2.87998E-001	4.03305E-006	0.00000E+000	2.88025E-001	0.00000E+000	9	...........	1467.52
	189	2.375	2.88994E-001	4.05809E-006	0.00000E+000	2.89025E-001	0.00000E+000	9	...........	1467.52
	190	2.3875	2.89991E-001	4.10817E-006	0.00000E+000	2.90024E-001	0.00000E+000	9	...........	1467.52
	191	2.4	2.90975E-001	4.10443E-006	0.00000E+000	2.91024E-001	0.00000E+000	9	...........	1467.52
	192	2.4125	2.91983E-001	4.15629E-006	0.00000E+000	2.92024E-001	0.00000E+000	9	...........	1467.52
	193	2.425	2.92979E-001	4.18182E-006	0.00000E+000	2.93023E-001	0.00000E+000	9	...........	1467.52
	194	2.4375	2.93977E-001	4.18588E-006	0.00000E+000	2.94023E-001	0.00000E+000	9	...........	1467.52
	195	2.45	2.95007E-001	4.25298E-006	0.00000E+000	2.95022E-001	0.00000E+000	9	...........	1467.52
	196	2.4625	2.96003E-001	4.24287E-006	0.00000E+000	2.96022E-001	0.00000E+000	9	...........	1467.52
	197	2.475	2.97005E-001	4.28537E-006	0.00000E+000	2.97034E-001	0.00000E+000	9	...........	1467.52
	198	2.4875	2.98005E-001	4.32770E-006	0.00000E+000	2.98034E-001	0.00000E+000	9	...........	1467.52
	199	2.5	2.99006E-001	4.32155E-006	0.00000E+000	2.99034E-001	0.00000E+000	9	...........	1467.52
	200	2.5125	3.00001E-001	4.36745E-006	0.00000E+000	3.00033E-001	0.00000E+000	9	...........	1467.52
	201	2.525	2.99038E-001	1.95489E-006	0.00000E+000	2.99034E-001	0.00000E+000	9	...........	1467.52
	202	2.5375	2.98040E-001	1.68012E-006	0.00000E+000	2.98034E-001	0.00000E+000	9	...........	1467.52
	203	2.55	2.97036E-001	1.54801E-006	0.00000E+000	2.97034E-001	0.00000E+000	9	...........	1467.52
	204	2.5625	2.96035E-001	1.36319E-006	0.00000E+000	2.96022E-001	0.00000E+000	9	...........	1467.52
	205	2.575	2.95043E-001	1.25665E-006	0.00000E+000	2.95022E-001	0.00000E+000	9	...........	1467.52
	206	2.5875	2.94006E-001	1.18549E-006	0.00000E+000	2.94023E-001	0.00000E+000	9	...........	1467.52
	207	2.6	2.93010E-001	1.05347E-006	0.00000E+000	2.93023E-001	0.00000E+000	9	...........	1467.52
	208	2.6125	2.92014E-001	9.88109E-007	0.00000E+000	2.92024E-001	0.00000E+000	9	...........	1467.52
	209	2.625	2.91012E-001	9.15705E-007	0.00000E+000	2.91024E-001	0.00000E+000	9	...........	1467.52
	210	2.6375	2.90027E-001	8.19731E-007	0.00000E+000	2.90024E-001	0.00000E+000	9	...........	1467.52
	211	2.65	2.89030E-001	7.82838E-007	0.00000E+000	2.89025E-001	0.00000E+000	9	...........	1467.52
	212	2.6625	2.88036E-001	6.99785E-007	0.00000E+000	2.88025E-001	0.00000E+000	9	...........	1467.52
	213	2.675	2.87022E-001	6.23816E-007	0.00000E+000	2.87025E-001	0.00000E+000	9	...........	1467.52
	214	2.6875	2.86022E-001	6.02162E-007	0.00000E+000	2.86026E-001	0.00000E+000	9	...........	1467.52
	215	2.7	2.85021E-001	5.05564E-007	0.00000E+000	2.85026E-001	0.00000E+000	9	...........	1467.52
	216	2.7125	2.84026E-001	4.74641E-007	0.00000E+000	2.84026E-001	0.00000E+000	9	...........	1467.52
	217	2.725	2.83015E-001	4.27679E-007	0.00000E+000	2.83027E-001	0.00000E+000	9	...........	1467.52
	218	2.7375	2.82011E-001	3.45562E-007	0.00000E+000	2.82027E-001	0.00000E+000	9	...........	1467.52
	219	2.75	2.81003E-001	3.38700E-007	0.00000E+000	2.81027E-001	0.00000E+000	9	...........	1467.52
	220	2.7625	2.80003E-001	2.66251E-007	0.00000E+000	2.80028E-001	0.00000E+000	9	...........	1467.52
	221	2.775	2.79003E-001	2.20536E-007	0.00000E+000	2.79028E-001	0.00000E+000	9	...........	1467.52
	222	2.7875	2.78012E-001	2.01333E-007	0.00000E+000	2.78028E-001	0.00000E+000	9	...........	1467.52
	223	2.8	2.77013E-001	1.25720E-007	0.00000E+000	2.77029E-001	0.00000E+000	9	...........	1467.52
	224	2.8125	2.76016E-001	9.93429E-008	0.00000E+000	2.76029E-001	0.00000E+000	9	...........	1467.52
	225	2.825	2.75006E-001	7.56389E-008	0.00000E+000	2.75029E-001	0.00000E+000	9	...........	1467.52
	226	2.8375	2.74009E-001	1.85354E-009	0.00000E+000	2.74030E-001	0.00000E+000	9	...........	1467.58
	227	2.85	2.73013E-001	-5.32004E-009	0.00000E+000	2.73030E-001	0.00000E+000	9	...........	1467.61
	228	2.8625	2.72018E-001	-5.78075E-008	0.00000E+000	2.72031E-001	0.00000E+000	9	...........	1467.61
	229	2.875	2.71026E-001	-1.01517E-007	0.00000E+000	2.71031E-001	0.00000E+000	9	...........	1467.61
	230	2.8875	2.70021E-001	-1.21746E-007	0.00000E+000	2.70019E-001	0.00000E+000	9	...........	1467.61
	231	2.9	2.69019E-001	-1.80471E-007	0.00000E+000	2.69019E-001	0.00000E+000	9	...........	1467.61
	232	2.9125	2.67990E-001	-1.94729E-007	0.00000E+000	2.68019E-001	0.00000E+000	9	...........	1467.61
	233	2.925	2.66986E-001	-2.17498E-007	0.00000E+000	2.67020E-001	0.00000E+000	9	...........	1467.61
	234	2.9375	2.65999E-001	-2.81392E-007	0.00000E+000	2.66020E-001	0.00000E+000	9	...........	1467.61
	235	2.95	2.64995E-001	-2.85669E-007	0.00000E+000	2.65020E-001	0.00000E+000	9	...........	1467.61
	236	2.9625	2.64001E-001	-3.32186E-007	0.00000E+000	2.64021E-001	0.00000E+000	9	...........	1467.61
	237	2.975	2.62999E-001	-3.68232E-007	0.00000E+000	2.63021E-001	0.00000E+000	9	...........	1467.61
	238	2.9875	2.61996E-001	-3.70371E-007	0.00000E+000	2.62022E-001	0.00000E+000	9	...........	1467.61
	239	3	2.61001E-001	-4.29943E-007	0.00000E+000	2.61022E-001	0.00000E+000	9	...........	1467.61
	240	3.0125	2.60007E-001	-4.50750E-007	0.00000E+000	2.60022E-001	0.00000E+000	9	...........	1467.61
	241	3.025	2.59013E-001	-4.68127E-007	0.00000E+000	2.59023E-001	0.00000E+000	9	...........	1467.61
	242	3.0375	2.58010E-001	-5.25516E-007	0.00000E+000	2.58023E-001	0.00000E+000	9	...........	1467.61
	243	3.05	2.57024E-001	-5.18699E-007	0.00000E+000	2.57023E-001	0.00000E+000	9	...........	1467.61
	244	3.0625	2.56011E-001	-5.71587E-007	0.00000E+000	2.56024E-001	0.00000E+000	9	...........	1467.61
	245	3.075	2.54997E-001	-6.08703E-007	0.00000E+000	2.55024E-001	0.00000E+000	9	...........	1467.61
	246	3.0875	2.53997E-001	-6.09950E-007	0.00000E+000	2.54024E-001	0.00000E+000	9	...........	1467.61
	247	3.1	2.53008E-001	-6.70280E-007	0.00000E+000	2.53025E-001	0.00000E+000	9	...........	1467.61
	248	3.1125	2.52013E-001	-6.76339E-007	0.00000E+000	2.52025E-001	0.00000E+000	9	...........	1467.61
	249	3.125	2.51020E-001	-6.95365E-007	0.00000E+000	2.51025E-001	0.00000E+000	9	...........	1467.61
	250	3.1375	2.50028E-001	-7.56452E-007	0.00000E+000	2.50026E-001	0.00000E+000	9	...........	1467.61
	251	3.15	2.49020E-001	-7.52264E-007	0.00000E+000	2.49026E-001	0.00000E+000	9	...........	1467.61
	252	3.1625	2.48026E-001	-8.00384E-007	0.00000E+000	2.48026E-001	0.00000E+000	9	...........	1467.61
	253	3.175	2.47027E-001	-8.36698E-007	0.00000E+000	2.47027E-001	0.00000E+000	9	...........	1467.61
	254	3.1875	2.46026E-001	-8.30460E-007	0.00000E+000	2.46027E-001	0.00000E+000	9	...........	1467.61
	255	3.2	2.45021E-001	-9.04067E-007	0.00000E+000	2.45015E-001	0.00000E+000	9	...........	1467.61
	256	3.2125	2.44024E-001	-9.03800E-007	0.00000E+000	2.44015E-001	0.00000E+000	9	...........	1467.61
	257	3.225	2.43022E-001	-9.20999E-007	0.00000E+000	2.43016E-001	0.00000E+000	9	...........	1467.61
	258	3.2375	2.42001E-001	-9.74511E-007	0.00000E+000	2.42016E-001	0.00000E+000	9	...........	1467.61
	259	3.25	2.40993E-001	-9.71793E-007	0.00000E+000	2.41016E-001	0.00000E+000	9	...........	1467.61
	260	3.2625	2.40012E-001	-1.01372E-006	0.00000E+000	2.40017E-001	0.00000E+000	9	...........	1467.61
	261	3.275	2.39004E-001	-1.05217E-006	0.00000E+000	2.39017E-001	0.00000E+000	9	...........	1467.61
	262	3.2875	2.38003E-001	-1.04473E-006	0.00000E+000	2.38017E-001	0.00000E+000	9	...........	1467.61
	263	3.3	2.37010E-001	-1.10390E-006	0.00000E+000	2.37018E-001	0.00000E+000	9	...........	1467.61
	264	3.3125	2.36004E-001	-1.11504E-006	0.00000E+000	2.36018E-001	0.00000E+000	9	...........	1467.61
	265	3.325	2.35014E-001	-1.11821E-006	0.00000E+000	2.35018E-001	0.00000E+000	9	...........	1467.61
	266	3.3375	2.34021E-001	-1.18393E-006	0.00000E+000	2.34019E-001	0.00000E+000	9	...........	1467.61
	267	3.35	2.33022E-001	-1.17368E-006	0.00000E+000	2.33019E-001	0.00000E+000	9	...........	1467.61
	268	3.3625	2.32024E-001	-1.21543E-006	0.00000E+000	2.32019E-001	0.00000E+000	9	...........	1467.61
	269	3.375	2.31023E-001	-1.25018E-006	0.00000E+000	2.31020E-001	0.00000E+000	9	...........	1467.61
	270	3.3875	2.30001E-001	-1.24180E-006	0.00000E+000	2.30020E-001	0.00000E+000	9	...........	1467.61
	271	3.4	2.29004E-001	-1.30218E-006	0.00000E+000	2.29021E-001	0.00000E+000	9	...........	1467.61
	272	3.4125	2.28012E-001	-1.30975E-006	0.00000E+000	2.28021E-001	0.00000E+000	9	...........	1467.61
	273	3.425	2.27002E-001	-1.32058E-006	0.00000E+000	2.27021E-001	0.00000E+000	9	...........	1467.61
	274	3.4375	2.26002E-001	-1.38167E-006	0.00000E+000	2.26022E-001	0.00000E+000	9	...........	1467.61
	275	3.45	2.25009E-001	-1.37592E-006	0.00000E+000	2.25022E-001	0.00000E+000	9	...........	1467.61
	276	3.4625	2.24022E-001	-1.40649E-006	0.00000E+000	2.24022E-001	0.00000E+000	9	...........	1467.61
	277	3.475	2.23013E-001	-1.44610E-006	0.00000E+000	2.23023E-001	0.00000E+000	9	...........	1467.61
	278	3.4875	2.22015E-001	-1.43781E-006	0.00000E+000	2.22023E-001	0.00000E+000	9	...........	1467.61
	279	3.5	2.21021E-001	-1.49333E-006	0.00000E+000	2.21023E-001	0.00000E+000	9	...........	1467.61
	280	3.5125	2.20004E-001	-1.52122E-006	0.00000E+000	2.20011E-001	0.00000E+000	9	...........	1467.61
	281	3.525	2.19005E-001	-1.52278E-006	0.00000E+000	2.19012E-001	0.00000E+000	9	...........	1467.61
	282	3.5375	2.18020E-001	-1.57602E-006	0.00000E+000	2.18012E-001	0.00000E+000	9	...........	1467.61
	283	3.55	2.16988E-001	-1.57317E-006	0.00000E+000	2.17012E-001	0.00000E+000	9	...........	1467.61
	284	3.5625	2.15996E-001	-1.60285E-006	0.00000E+000	2.16013E-001	0.00000E+000	9	...........	1467.61
	285	3.575	2.14998E-001	-1.63934E-006	0.00000E+000	2.15013E-001	0.00000E+000	9	...........	1467.61
	286	3.5875	2.13985E-001	-1.63733E-006	0.00000E+000	2.14013E-001	0.00000E+000	9	...........	1467.61
	287	3.6	2.12998E-001	-1.68438E-006	0.00000E+000	2.13014E-001	0.00000E+000	9	...........	1467.61
	288	3.6125	2.12009E-001	-1.70546E-006	0.00000E+000	2.12014E-001	0.00000E+000	9	...........	1467.61
	289	3.625	2.11008E-001	-1.70296E-006	0.00000E+000	2.11014E-001	0.00000E+000	9	...........	1467.61
	290	3.6375	2.10004E-001	-1.76681E-006	0.00000E+000	2.10015E-001	0.00000E+000	9	...........	1467.61
	291	3.65	2.09012E-001	-1.76205E-006	0.00000E+000	2.09015E-001	0.00000E+000	9	...........	1467.61
	292	3.6625	2.08017E-001	-1.78660E-006	0.00000E+000	2.08015E-001	0.00000E+000	9	...........	1467.61
	293	3.675	2.07008E-001	-1.83596E-006	0.00000E+000	2.07016E-001	0.00000E+000	9	...........	1467.61
	294	3.6875	2.06025E-001	-1.81957E-006	0.00000E+000	2.06016E-001	0.00000E+000	9	...........	1467.61
	295	3.7	2.05029E-001	-1.87696E-006	0.00000E+000	2.05016E-001	0.00000E+000	9	...........	1467.61
	296	3.7125	2.04023E-001	-1.89598E-006	0.00000E+000	2.04017E-001	0.00000E+000	9	...........	1467.61
	297	3.725	2.03017E-001	-1.90275E-006	0.00000E+000	2.03017E-001	0.00000E+000	9	...........	1467.61
	298	3.7375	2.02014E-001	-1.96518E-006	0.00000E+000	2.02017E-001	0.00000E+000	9	...........	1467.61
	299	3.75	2.01018E-001	-1.96683E-006	0.00000E+000	2.01018E-001	0.00000E+000	9	...........	1467.61
	300	3.7625	2.00031E-001	-1.99013E-006	0.00000E+000	2.00018E-001	0.00000E+000	9	...........	1467.61
	301	3.775	1.99036E-001	-2.02965E-006	0.00000E+000	1.99019E-001	0.00000E+000	9	...........	1467.61
	302	3.7875	1.98027E-001	-2.02515E-006	0.00000E+000	1.98019E-001	0.00000E+000	9	...........	1467.61
	303	3.8	1.97027E-001	-2.07425E-006	0.00000E+000	1.97019E-001	0.00000E+000	9	...........	1467.61
	304	3.8125	1.96027E-001	-2.10700E-006	0.00000E+000	1.96020E-001	0.00000E+000	9	...........	1467.61
	305	3.825	1.95030E-001	-2.10482E-006	0.00000E+000	1.95020E-001	0.00000E+000	9	...........	1467.61
	306	3.8375	1.94017E-001	-2.17762E-006	0.00000E+000	1.94008E-001	0.00000E+000	9	...........	1467.54
	307	3.85	1.93023E-001	-2.16265E-006	0.00000E+000	1.93008E-001	0.00000E+000	9	...........	1467.52
	308	3.8625	1.92031E-001	-2.18970E-006	0.00000E+000	1.92008E-001	0.00000E+000	9	...........	1467.52
	309	3.875	1.91003E-001	-2.23951E-006	0.00000E+000	1.91009E-001	0.00000E+000	9	...........	1467.52
	310	3.8875	1.90003E-001	-2.23546E-006	0.00000E+000	1.90009E-001	0.00000E+000	9	...........	1467.52
	311	3.9	1.89000E-001	-2.28995E-006	0.00000E+000	1.89010E-001	0.00000E+000	9	...........	1467.52
	312	3.9125	1.88012E-001	-2.31557E-006	0.00000E+000	1.88010E-001	0.00000E+000	9	...........	1467.52
	313	3.925	1.87017E-001	-2.30951E-006	0.00000E+000	1.87010E-001	0.00000E+000	9	...........	1467.52
	314	3.9375	1.86016E-001	-2.37380E-006	0.00000E+000	1.86011E-001	0.00000E+000	9	...........	1467.52
	315	3.95	1.85008E-001	-2.37309E-006	0.00000E+000	1.85011E-001	0.00000E+000	9	...........	1467.52
	316	3.9625	1.84012E-001	-2.39876E-006	0.00000E+000	1.84011E-001	0.00000E+000	9	...........	1467.52
	317	3.975	1.83018E-001	-2.44175E-006	0.00000E+000	1.83012E-001	0.00000E+000	9	...........	1467.52
	318	3.9875	1.82025E-001	-2.43850E-006	0.00000E+000	1.82012E-001	0.00000E+000	9	...........	1467.52
	319	4	1.81025E-001	-2.48301E-006	0.00000E+000	1.81012E-001	0.00000E+000	9	...........	1467.52
	320	4.0125	1.80012E-001	-2.51647E-006	0.00000E+000	1.80013E-001	0.00000E+000	9	...........	1467.52
	321	4.025	1.78999E-001	-2.50636E-006	0.00000E+000	1.79013E-001	0.00000E+000	9	...........	1467.52
	322	4.0375	1.78005E-001	-2.57128E-006	0.00000E+000	1.78013E-001	0.00000E+000	9	...........	1467.52
	323	4.05	1.77001E-001	-2.57578E-006	0.00000E+000	1.77014E-001	0.00000E+000	9	...........	1467.52
	324	4.0625	1.76016E-001	-2.60184E-006	0.00000E+000	1.76014E-001	0.00000E+000	9	...........	1467.52
	325	4.075	1.75008E-001	-2.65518E-006	0.00000E+000	1.75014E-001	0.00000E+000	9	...........	1467.52
	326	4.0875	1.74012E-001	-2.64774E-006	0.00000E+000	1.74015E-001	0.00000E+000	9	...........	1467.52
	327	4.1	1.73019E-001	-2.69390E-006	0.00000E+000	1.73015E-001	0.00000E+000	9	...........	1467.52
	328	4.1125	1.72020E-001	-2.72852E-006	0.00000E+000	1.72015E-001	0.00000E+000	9	...........	1467.52
	329	4.125	1.71017E-001	-2.72023E-006	0.00000E+000	1.71016E-001	0.00000E+000	9	...........	1467.52
	330	4.1375	1.70035E-001	-2.78435E-006	0.00000E+000	1.70016E-001	0.00000E+000	9	...........	1467.52
	331	4.15	1.69018E-001	-2.80480E-006	0.00000E+000	1.69004E-001	0.00000E+000	9	...........	1467.52
	332	4.1625	1.68016E-001	-2.81527E-006	0.00000E+000	1.68004E-001	0.00000E+000	9	...........	1467.52
	333	4.175	1.67015E-001	-2.86615E-006	0.00000E+000	1.67005E-001	0.00000E+000	9	...........	1467.52
	334	4.1875	1.65984E-001	-2.85590E-006	0.00000E+000	1.66005E-001	0.00000E+000	9	...........	1467.52
	335	4.2	1.64988E-001	-2.90416E-006	0.00000E+000	1.65005E-001	0.00000E+000	9	...........	1467.52
	336	4.2125	1.64004E-001	-2.93829E-006	0.00000E+000	1.64006E-001	0.00000E+000	9	...........	1467.52
	337	4.225	1.62998E-001	-2.94301E-006	0.00000E+000	1.63006E-001	0.00000E+000	9	...........	1467.52
	338	4.2375	1.61998E-001	-2.99733E-006	0.00000E+000	1.62006E-001	0.00000E+000	9	...........	1467.52
	339	4.25	1.61007E-001	-3.00695E-006	0.00000E+000	1.61007E-001	0.00000E+000	9	...........	1467.52
	340	4.2625	1.60008E-001	-3.02803E-006	0.00000E+000	1.60007E-001	0.00000E+000	9	...........	1467.52
	341	4.275	1.59000E-001	-3.08056E-006	0.00000E+000	1.59007E-001	0.00000E+000	9	...........	1467.52
	342	4.2875	1.58019E-001	-3.08109E-006	0.00000E+000	1.58008E-001	0.00000E+000	9	...........	1467.52
	343	4.3	1.57023E-001	-3.12356E-006	0.00000E+000	1.57008E-001	0.00000E+000	9	...........	1467.52
	344	4.3125	1.56016E-001	-3.16227E-006	0.00000E+000	1.56009E-001	0.00000E+000	9	...........	1467.52
	345	4.325	1.55021E-001	-3.15550E-006	0.00000E+000	1.55009E-001	0.00000E+000	9	...........	1467.52
	346	4.3375	1.54007E-001	-3.22274E-006	0.00000E+000	1.54009E-001	0.00000E+000	9	...........	1467.52
	347	4.35	1.53000E-001	-3.22550E-006	0.00000E+000	1.53010E-001	0.00000E+000	9	...........	1467.52
	348	4.3625	1.51998E-001	-3.24747E-006	0.00000E+000	1.52010E-001	0.00000E+000	9	...........	1467.52
	349	4.375	1.51007E-001	-3.30035E-006	0.00000E+000	1.51010E-001	0.00000E+000	9	...........	1467.52
	350	4.3875	1.50005E-001	-3.29577E-006	0.00000E+000	1.50011E-001	0.00000E+000	9	...........	1467.52
	351	4.4	1.49012E-001	-3.34246E-006	0.00000E+000	1.49011E-001	0.00000E+000	9	...........	1467.52
	352	4.4125	1.48026E-001	-3.37659E-006	0.00000E+000	1.48011E-001	0.00000E+000	9	...........	1467.52
	353	4.425	1.47021E-001	-3.37227E-006	0.00000E+000	1.47012E-001	0.00000E+000	9	...........	1467.52
	354	4.4375	1.46020E-001	-3.43313E-006	0.00000E+000	1.46012E-001	0.00000E+000	9	...........	1467.52
	355	4.45	1.45018E-001	-3.44289E-006	0.00000E+000	1.45012E-001	0.00000E+000	9	...........	1467.52
	356	4.4625	1.44012E-001	-3.48010E-006	0.00000E+000	1.44000E-001	0.00000E+000	9	...........	1467.52
	357	4.475	1.43018E-001	-3.52118E-006	0.00000E+000	1.43001E-001	0.00000E+000	9	...........	1467.52
	358	4.4875	1.42015E-001	-3.51307E-006	0.00000E+000	1.42001E-001	0.00000E+000	9	...........	1467.52
	359	4.5	1.41012E-001	-3.56070E-006	0.00000E+000	1.41001E-001	0.00000E+000	9	...........	1467.52
	360	4.5125	1.39985E-001	-3.59630E-006	0.00000E+000	1.40002E-001	0.00000E+000	9	...........	1467.52
	361	4.525	1.38993E-001	-3.59732E-006	0.00000E+000	1.39002E-001	0.00000E+000	9	...........	1467.52
	362	4.5375	1.37997E-001	-3.66233E-006	0.00000E+000	1.38002E-001	0.00000E+000	9	...........	1467.52
	363	4.55	1.36996E-001	-3.66995E-006	0.00000E+000	1.37003E-001	0.00000E+000	9	...........	1467.52
	364	4.5625	1.36004E-001	-3.68372E-006	0.00000E+000	1.36003E-001	0.00000E+000	9	...........	1467.52
	365	4.575	1.35007E-001	-3.73607E-006	0.00000E+000	1.35003E-001	0.00000E+000	9	...........	1467.52
	366	4.5875	1.34009E-001	-3.73322E-006	0.00000E+000	1.34004E-001	0.00000E+000	9	...........	1467.52
	367	4.6	1.33022E-001	-3.78174E-006	0.00000E+000	1.33004E-001	0.00000E+000	9	...........	1467.52
	368	4.6125	1.32022E-001	-3.81445E-006	0.00000E+000	1.32004E-001	0.00000E+000	9	...........	1467.52
	369	4.625	1.31017E-001	-3.81534E-006	0.00000E+000	1.31005E-001	0.00000E+000	9	...........	1467.52
	370	4.6375	1.30012E-001	-3.87411E-006	0.00000E+000	1.30005E-001	0.00000E+000	9	...........	1467.52
	371	4.65	1.29017E-001	-3.88654E-006	0.00000E+000	1.29005E-001	0.00000E+000	9	...........	1467.52
	372	4.6625	1.28017E-001	-3.90307E-006	0.00000E+000	1.28006E-001	0.00000E+000	9	...........	1467.52
	373	4.675	1.26997E-001	-3.95979E-006	0.00000E+000	1.27006E-001	0.00000E+000	9	...........	1467.52
	374	4.6875	1.25999E-001	-3.96006E-006	0.00000E+000	1.26006E-001	0.00000E+000	9	...........	1467.52
	375	4.7	1.25004E-001	-4.00363E-006	0.00000E+000	1.25007E-001	0.00000E+000	9	...........	1467.52
	376	4.7125	1.23998E-001	-4.03540E-006	0.00000E+000	1.24007E-001	0.00000E+000	9	...........	1467.52
	377	4.725	1.23008E-001	-4.03415E-006	0.00000E+000	1.23008E-001	0.00000E+000	9	...........	1467.52
	378	4.7375	1.22023E-001	-4.09056E-006	0.00000E+000	1.22008E-001	0.00000E+000	9	...........	1467.52
	379	4.75	1.21013E-001	-4.10941E-006	0.00000E+000	1.21008E-001	0.00000E+000	9	...........	1467.52
	380	4.7625	1.20015E-001	-4.12135E-006	0.00000E+000	1.20009E-001	0.00000E+000	9	...........	1467.52
	381	4.775	1.19015E-001	-4.18480E-006	0.00000E+000	1.19009E-001	0.00000E+000	9	...........	1467.52
	382	4.7875	1.17993E-001	-4.19692E-006	0.00000E+000	1.17997E-001	0.00000E+000	9	...........	1467.52
[...]
	1005	12.575	2.95038E-001	1.25964E-006	0.00000E+000	2.95022E-001	0.00000E+000	9	...........	1467.52
	1006	12.5875	2.94010E-001	1.10904E-006	0.00000E+000	2.94023E-001	0.00000E+000	9	...........	1467.52
	1007	12.6	2.93018E-001	1.05089E-006	0.00000E+000	2.93023E-001	0.00000E+000	9	...........	1467.52
	1008	12.6125	2.92018E-001	9.60796E-007	0.00000E+000	2.92024E-001	0.00000E+000	9	...........	1467.52
	1009	12.625	2.91014E-001	8.60589E-007	0.00000E+000	2.91024E-001	0.00000E+000	9	...........	1467.52
	1010	12.6375	2.90031E-001	8.23073E-007	0.00000E+000	2.90024E-001	0.00000E+000	9	...........	1467.52
	1011	12.65	2.89032E-001	7.28301E-007	0.00000E+000	2.89025E-001	0.00000E+000	9	...........	1467.52
	1012	12.6625	2.88036E-001	6.70333E-007	0.00000E+000	2.88025E-001	0.00000E+000	9	...........	1467.52
	1013	12.675	2.87033E-001	6.21321E-007	0.00000E+000	2.87025E-001	0.00000E+000	9	...........	1467.52
	1014	12.6875	2.86030E-001	5.30248E-007	0.00000E+000	2.86026E-001	0.00000E+000	9	...........	1467.52
	1015	12.7	2.85031E-001	5.00796E-007	0.00000E+000	2.85026E-001	0.00000E+000	9	...........	1467.52
	1016	12.7125	2.84038E-001	4.36501E-007	0.00000E+000	2.84026E-001	0.00000E+000	9	...........	1467.52
	1017	12.725	2.83032E-001	3.69978E-007	0.00000E+000	2.83027E-001	0.00000E+000	9	...........	1467.52
	1018	12.7375	2.82029E-001	3.54072E-007	0.00000E+000	2.82027E-001	0.00000E+000	9	...........	1467.52
	1019	12.75	2.81019E-001	2.74984E-007	0.00000E+000	2.81027E-001	0.00000E+000	9	...........	1467.52
	1020	12.7625	2.80013E-001	2.33458E-007	0.00000E+000	2.80028E-001	0.00000E+000	9	...........	1467.52
	1021	12.775	2.79013E-001	2.06011E-007	0.00000E+000	2.79028E-001	0.00000E+000	9	...........	1467.52
	1022	12.7875	2.78013E-001	1.25542E-007	0.00000E+000	2.78028E-001	0.00000E+000	9	...........	1467.52
	1023	12.8	2.77015E-001	1.18547E-007	0.00000E+000	2.77029E-001	0.00000E+000	9	...........	1467.52
	1024	12.8125	2.76015E-001	5.97769E-008	0.00000E+000	2.76029E-001	0.00000E+000	9	...........	1467.52
	1025	12.825	2.75015E-001	1.04529E-008	0.00000E+000	2.75029E-001	0.00000E+000	9	...........	1467.55
	1026	12.8375	2.74010E-001	-1.96075E-010	0.00000E+000	2.74030E-001	0.00000E+000	9	...........	1467.61
	1027	12.85	2.73015E-001	-6.80555E-008	0.00000E+000	2.73030E-001	0.00000E+000	9	...........	1467.61
	1028	12.8625	2.72015E-001	-9.81756E-008	0.00000E+000	2.72031E-001	0.00000E+000	9	...........	1467.61
	1029	12.875	2.71034E-001	-1.18003E-007	0.00000E+000	2.71031E-001	0.00000E+000	9	...........	1467.61
	1030	12.8875	2.70028E-001	-2.01725E-007	0.00000E+000	2.70019E-001	0.00000E+000	9	...........	1467.61
	1031	12.9	2.69036E-001	-1.91833E-007	0.00000E+000	2.69019E-001	0.00000E+000	9	...........	1467.61
	1032	12.9125	2.67996E-001	-2.36523E-007	0.00000E+000	2.68019E-001	0.00000E+000	9	...........	1467.61
	1033	12.925	2.66990E-001	-2.84600E-007	0.00000E+000	2.67020E-001	0.00000E+000	9	...........	1467.61
	1034	12.9375	2.66011E-001	-2.90214E-007	0.00000E+000	2.66020E-001	0.00000E+000	9	...........	1467.61
	1035	12.95	2.65007E-001	-3.48894E-007	0.00000E+000	2.65020E-001	0.00000E+000	9	...........	1467.61
	1036	12.9625	2.64007E-001	-3.73445E-007	0.00000E+000	2.64021E-001	0.00000E+000	9	...........	1467.61
	1037	12.975	2.63013E-001	-3.88371E-007	0.00000E+000	2.63021E-001	0.00000E+000	9	...........	1467.61
	1038	12.9875	2.62003E-001	-4.51018E-007	0.00000E+000	2.62022E-001	0.00000E+000	9	...........	1467.61
	1039	13	2.61008E-001	-4.55251E-007	0.00000E+000	2.61022E-001	0.00000E+000	9	...........	1467.61
	1040	13.0125	2.60008E-001	-4.91208E-007	0.00000E+000	2.60022E-001	0.00000E+000	9	...........	1467.61
	1041	13.025	2.59015E-001	-5.43918E-007	0.00000E+000	2.59023E-001	0.00000E+000	9	...........	1467.61
	1042	13.0375	2.58017E-001	-5.36521E-007	0.00000E+000	2.58023E-001	0.00000E+000	9	...........	1467.61
	1043	13.05	2.57024E-001	-5.96762E-007	0.00000E+000	2.57023E-001	0.00000E+000	9	...........	1467.61
	1044	13.0625	2.56017E-001	-6.14852E-007	0.00000E+000	2.56024E-001	0.00000E+000	9	...........	1467.61
	1045	13.075	2.55002E-001	-6.32630E-007	0.00000E+000	2.55024E-001	0.00000E+000	9	...........	1467.61
	1046	13.0875	2.53999E-001	-6.95276E-007	0.00000E+000	2.54024E-001	0.00000E+000	9	...........	1467.61
	1047	13.1	2.53009E-001	-6.89840E-007	0.00000E+000	2.53025E-001	0.00000E+000	9	...........	1467.61
	1048	13.1125	2.52016E-001	-7.37916E-007	0.00000E+000	2.52025E-001	0.00000E+000	9	...........	1467.61
	1049	13.125	2.51018E-001	-7.71022E-007	0.00000E+000	2.51025E-001	0.00000E+000	9	...........	1467.61
	1050	13.1375	2.50025E-001	-7.64205E-007	0.00000E+000	2.50026E-001	0.00000E+000	9	...........	1467.61
	1051	13.15	2.49018E-001	-8.28143E-007	0.00000E+000	2.49026E-001	0.00000E+000	9	...........	1467.61
	1052	13.1625	2.48023E-001	-8.49040E-007	0.00000E+000	2.48026E-001	0.00000E+000	9	...........	1467.61
	1053	13.175	2.47026E-001	-8.59154E-007	0.00000E+000	2.47027E-001	0.00000E+000	9	...........	1467.61
	1054	13.1875	2.46025E-001	-9.22736E-007	0.00000E+000	2.46027E-001	0.00000E+000	9	...........	1467.61
	1055	13.2	2.45025E-001	-9.25276E-007	0.00000E+000	2.45015E-001	0.00000E+000	9	...........	1467.61
	1056	13.2125	2.44029E-001	-9.51431E-007	0.00000E+000	2.44015E-001	0.00000E+000	9	...........	1467.61
	1057	13.225	2.43022E-001	-9.93492E-007	0.00000E+000	2.43016E-001	0.00000E+000	9	...........	1467.61
	1058	13.2375	2.42005E-001	-9.84848E-007	0.00000E+000	2.42016E-001	0.00000E+000	9	...........	1467.61
	1059	13.25	2.41006E-001	-1.04518E-006	0.00000E+000	2.41016E-001	0.00000E+000	9	...........	1467.61
	1060	13.2625	2.40019E-001	-1.06603E-006	0.00000E+000	2.40017E-001	0.00000E+000	9	...........	1467.61
	1061	13.275	2.39012E-001	-1.06817E-006	0.00000E+000	2.39017E-001	0.00000E+000	9	...........	1467.61
	1062	13.2875	2.38010E-001	-1.13460E-006	0.00000E+000	2.38017E-001	0.00000E+000	9	...........	1467.61
	1063	13.3	2.37012E-001	-1.12841E-006	0.00000E+000	2.37018E-001	0.00000E+000	9	...........	1467.61
	1064	13.3125	2.36002E-001	-1.16116E-006	0.00000E+000	2.36018E-001	0.00000E+000	9	...........	1467.61
	1065	13.325	2.35012E-001	-1.20727E-006	0.00000E+000	2.35018E-001	0.00000E+000	9	...........	1467.61
	1066	13.3375	2.34021E-001	-1.19297E-006	0.00000E+000	2.34019E-001	0.00000E+000	9	...........	1467.61
	1067	13.35	2.33022E-001	-1.25014E-006	0.00000E+000	2.33019E-001	0.00000E+000	9	...........	1467.61
	1068	13.3625	2.32028E-001	-1.26292E-006	0.00000E+000	2.32019E-001	0.00000E+000	9	...........	1467.61
	1069	13.375	2.31026E-001	-1.26939E-006	0.00000E+000	2.31020E-001	0.00000E+000	9	...........	1467.61
	1070	13.3875	2.30012E-001	-1.32709E-006	0.00000E+000	2.30020E-001	0.00000E+000	9	...........	1467.61
	1071	13.4	2.29011E-001	-1.32495E-006	0.00000E+000	2.29021E-001	0.00000E+000	9	...........	1467.61
	1072	13.4125	2.28013E-001	-1.36188E-006	0.00000E+000	2.28021E-001	0.00000E+000	9	...........	1467.61
	1073	13.425	2.27007E-001	-1.39597E-006	0.00000E+000	2.27021E-001	0.00000E+000	9	...........	1467.61
	1074	13.4375	2.26004E-001	-1.39405E-006	0.00000E+000	2.26022E-001	0.00000E+000	9	...........	1467.61
	1075	13.45	2.25010E-001	-1.44436E-006	0.00000E+000	2.25022E-001	0.00000E+000	9	...........	1467.61
	1076	13.4625	2.24018E-001	-1.46664E-006	0.00000E+000	2.24022E-001	0.00000E+000	9	...........	1467.61
	1077	13.475	2.23007E-001	-1.47042E-006	0.00000E+000	2.23023E-001	0.00000E+000	9	...........	1467.61
	1078	13.4875	2.22014E-001	-1.52260E-006	0.00000E+000	2.22023E-001	0.00000E+000	9	...........	1467.61
	1079	13.5	2.21021E-001	-1.52033E-006	0.00000E+000	2.21023E-001	0.00000E+000	9	...........	1467.61
	1080	13.5125	2.20005E-001	-1.56667E-006	0.00000E+000	2.20011E-001	0.00000E+000	9	...........	1467.61
	1081	13.525	2.19005E-001	-1.59714E-006	0.00000E+000	2.19012E-001	0.00000E+000	9	...........	1467.61
	1082	13.5375	2.18019E-001	-1.57727E-006	0.00000E+000	2.18012E-001	0.00000E+000	9	...........	1467.61
	1083	13.55	2.16999E-001	-1.63671E-006	0.00000E+000	2.17012E-001	0.00000E+000	9	...........	1467.61
	1084	13.5625	2.15999E-001	-1.64860E-006	0.00000E+000	2.16013E-001	0.00000E+000	9	...........	1467.61
	1085	13.575	2.14994E-001	-1.66282E-006	0.00000E+000	2.15013E-001	0.00000E+000	9	...........	1467.61
	1086	13.5875	2.13995E-001	-1.71691E-006	0.00000E+000	2.14013E-001	0.00000E+000	9	...........	1467.61
	1087	13.6	2.12995E-001	-1.71348E-006	0.00000E+000	2.13014E-001	0.00000E+000	9	...........	1467.61
	1088	13.6125	2.12007E-001	-1.74320E-006	0.00000E+000	2.12014E-001	0.00000E+000	9	...........	1467.61
	1089	13.625	2.10998E-001	-1.78931E-006	0.00000E+000	2.11014E-001	0.00000E+000	9	...........	1467.61
	1090	13.6375	2.10003E-001	-1.77898E-006	0.00000E+000	2.10015E-001	0.00000E+000	9	...........	1467.61
	1091	13.65	2.09006E-001	-1.82469E-006	0.00000E+000	2.09015E-001	0.00000E+000	9	...........	1467.61
	1092	13.6625	2.08011E-001	-1.85392E-006	0.00000E+000	2.08015E-001	0.00000E+000	9	...........	1467.61
	1093	13.675	2.07003E-001	-1.85307E-006	0.00000E+000	2.07016E-001	0.00000E+000	9	...........	1467.61
	1094	13.6875	2.06022E-001	-1.91853E-006	0.00000E+000	2.06016E-001	0.00000E+000	9	...........	1467.61
	1095	13.7	2.05023E-001	-1.91082E-006	0.00000E+000	2.05016E-001	0.00000E+000	9	...........	1467.61
	1096	13.7125	2.04014E-001	-1.94580E-006	0.00000E+000	2.04017E-001	0.00000E+000	9	...........	1467.61
	1097	13.725	2.03013E-001	-1.98937E-006	0.00000E+000	2.03017E-001	0.00000E+000	9	...........	1467.61
	1098	13.7375	2.02012E-001	-1.97676E-006	0.00000E+000	2.02017E-001	0.00000E+000	9	...........	1467.61
	1099	13.75	2.01012E-001	-2.03201E-006	0.00000E+000	2.01018E-001	0.00000E+000	9	...........	1467.61
	1100	13.7625	2.00028E-001	-2.05162E-006	0.00000E+000	2.00018E-001	0.00000E+000	9	...........	1467.61
	1101	13.775	1.99028E-001	-2.04890E-006	0.00000E+000	1.99019E-001	0.00000E+000	9	...........	1467.61
	1102	13.7875	1.98010E-001	-2.11582E-006	0.00000E+000	1.98019E-001	0.00000E+000	9	...........	1467.61
	1103	13.8	1.97018E-001	-2.11346E-006	0.00000E+000	1.97019E-001	0.00000E+000	9	...........	1467.61
	1104	13.8125	1.96017E-001	-2.13971E-006	0.00000E+000	1.96020E-001	0.00000E+000	9	...........	1467.61
	1105	13.825	1.95020E-001	-2.18569E-006	0.00000E+000	1.95020E-001	0.00000E+000	9	...........	1467.58
	1106	13.8375	1.94015E-001	-2.19050E-006	0.00000E+000	1.94008E-001	0.00000E+000	9	...........	1467.52
	1107	13.85	1.93021E-001	-2.22467E-006	0.00000E+000	1.93008E-001	0.00000E+000	9	...........	1467.52
	1108	13.8625	1.92029E-001	-2.24183E-006	0.00000E+000	1.92008E-001	0.00000E+000	9	...........	1467.52
	1109	13.875	1.90999E-001	-2.25270E-006	0.00000E+000	1.91009E-001	0.00000E+000	9	...........	1467.52
	1110	13.8875	1.90002E-001	-2.31348E-006	0.00000E+000	1.90009E-001	0.00000E+000	9	...........	1467.52
	1111	13.9	1.89001E-001	-2.30715E-006	0.00000E+000	1.89010E-001	0.00000E+000	9	...........	1467.52
	1112	13.9125	1.88013E-001	-2.33976E-006	0.00000E+000	1.88010E-001	0.00000E+000	9	...........	1467.52
	1113	13.925	1.87015E-001	-2.38637E-006	0.00000E+000	1.87010E-001	0.00000E+000	9	...........	1467.52
	1114	13.9375	1.86012E-001	-2.37550E-006	0.00000E+000	1.86011E-001	0.00000E+000	9	...........	1467.52
	1115	13.95	1.85006E-001	-2.42482E-006	0.00000E+000	1.85011E-001	0.00000E+000	9	...........	1467.52
	1116	13.9625	1.84011E-001	-2.45423E-006	0.00000E+000	1.84011E-001	0.00000E+000	9	...........	1467.52
	1117	13.975	1.83015E-001	-2.45490E-006	0.00000E+000	1.83012E-001	0.00000E+000	9	...........	1467.52
	1118	13.9875	1.82021E-001	-2.51901E-006	0.00000E+000	1.82012E-001	0.00000E+000	9	...........	1467.52
	1119	14	1.81017E-001	-2.51451E-006	0.00000E+000	1.81012E-001	0.00000E+000	9	...........	1467.52
	1120	14.0125	1.80009E-001	-2.54597E-006	0.00000E+000	1.80013E-001	0.00000E+000	9	...........	1467.52
	1121	14.025	1.78998E-001	-2.58799E-006	0.00000E+000	1.79013E-001	0.00000E+000	9	...........	1467.52
	1122	14.0375	1.77999E-001	-2.58558E-006	0.00000E+000	1.78013E-001	0.00000E+000	9	...........	1467.52
	1123	14.05	1.77006E-001	-2.63250E-006	0.00000E+000	1.77014E-001	0.00000E+000	9	...........	1467.52
	1124	14.0625	1.76017E-001	-2.65304E-006	0.00000E+000	1.76014E-001	0.00000E+000	9	...........	1467.52
	1125	14.075	1.75014E-001	-2.66708E-006	0.00000E+000	1.75014E-001	0.00000E+000	9	...........	1467.52
	1126	14.0875	1.74012E-001	-2.72299E-006	0.00000E+000	1.74015E-001	0.00000E+000	9	...........	1467.52
	1127	14.1	1.73022E-001	-2.72865E-006	0.00000E+000	1.73015E-001	0.00000E+000	9	...........	1467.52
	1128	14.1125	1.72015E-001	-2.75347E-006	0.00000E+000	1.72015E-001	0.00000E+000	9	...........	1467.52
	1129	14.125	1.71022E-001	-2.80489E-006	0.00000E+000	1.71016E-001	0.00000E+000	9	...........	1467.52
	1130	14.1375	1.70027E-001	-2.79794E-006	0.00000E+000	1.70016E-001	0.00000E+000	9	...........	1467.52
	1131	14.15	1.69011E-001	-2.86277E-006	0.00000E+000	1.69004E-001	0.00000E+000	9	...........	1467.52
	1132	14.1625	1.68015E-001	-2.87368E-006	0.00000E+000	1.68004E-001	0.00000E+000	9	...........	1467.52
	1133	14.175	1.67014E-001	-2.87778E-006	0.00000E+000	1.67005E-001	0.00000E+000	9	...........	1467.52
	1134	14.1875	1.65983E-001	-2.93370E-006	0.00000E+000	1.66005E-001	0.00000E+000	9	...........	1467.52
	1135	14.2	1.64983E-001	-2.94078E-006	0.00000E+000	1.65005E-001	0.00000E+000	9	...........	1467.52
	1136	14.2125	1.64000E-001	-2.97180E-006	0.00000E+000	1.64006E-001	0.00000E+000	9	...........	1467.52
	1137	14.225	1.62996E-001	-3.01934E-006	0.00000E+000	1.63006E-001	0.00000E+000	9	...........	1467.52
	1138	14.2375	1.61994E-001	-3.01292E-006	0.00000E+000	1.62006E-001	0.00000E+000	9	...........	1467.52
	1139	14.25	1.61002E-001	-3.06844E-006	0.00000E+000	1.61007E-001	0.00000E+000	9	...........	1467.52
	1140	14.2625	1.60005E-001	-3.08203E-006	0.00000E+000	1.60007E-001	0.00000E+000	9	...........	1467.52
	1141	14.275	1.58994E-001	-3.09241E-006	0.00000E+000	1.59007E-001	0.00000E+000	9	...........	1467.52
	1142	14.2875	1.58010E-001	-3.15809E-006	0.00000E+000	1.58008E-001	0.00000E+000	9	...........	1467.52
	1143	14.3	1.57023E-001	-3.15791E-006	0.00000E+000	1.57008E-001	0.00000E+000	9	...........	1467.52
	1144	14.3125	1.56020E-001	-3.19306E-006	0.00000E+000	1.56009E-001	0.00000E+000	9	...........	1467.52
	1145	14.325	1.55020E-001	-3.23495E-006	0.00000E+000	1.55009E-001	0.00000E+000	9	...........	1467.52
	1146	14.3375	1.54010E-001	-3.23392E-006	0.00000E+000	1.54009E-001	0.00000E+000	9	...........	1467.52
	1147	14.35	1.53005E-001	-3.29184E-006	0.00000E+000	1.53010E-001	0.00000E+000	9	...........	1467.52
	1148	14.3625	1.52003E-001	-3.31190E-006	0.00000E+000	1.52010E-001	0.00000E+000	9	...........	1467.52
	1149	14.375	1.51004E-001	-3.32107E-006	0.00000E+000	1.51010E-001	0.00000E+000	9	...........	1467.52
	1150	14.3875	1.50004E-001	-3.38359E-006	0.00000E+000	1.50011E-001	0.00000E+000	9	...........	1467.52
	1151	14.4	1.49009E-001	-3.38310E-006	0.00000E+000	1.49011E-001	0.00000E+000	9	...........	1467.52
	1152	14.4125	1.48018E-001	-3.40542E-006	0.00000E+000	1.48011E-001	0.00000E+000	9	...........	1467.52
	1153	14.425	1.47022E-001	-3.46103E-006	0.00000E+000	1.47012E-001	0.00000E+000	9	...........	1467.52
	1154	14.4375	1.46020E-001	-3.44490E-006	0.00000E+000	1.46012E-001	0.00000E+000	9	...........	1467.52
	1155	14.45	1.45016E-001	-3.49939E-006	0.00000E+000	1.45012E-001	0.00000E+000	9	...........	1467.52
	1156	14.4625	1.44003E-001	-3.53753E-006	0.00000E+000	1.44000E-001	0.00000E+000	9	...........	1467.52
	1157	14.475	1.43006E-001	-3.53552E-006	0.00000E+000	1.43001E-001	0.00000E+000	9	...........	1467.52
	1158	14.4875	1.42006E-001	-3.60249E-006	0.00000E+000	1.42001E-001	0.00000E+000	9	...........	1467.52
	1159	14.5	1.41017E-001	-3.60209E-006	0.00000E+000	1.41001E-001	0.00000E+000	9	...........	1467.52
	1160	14.5125	1.39991E-001	-3.62802E-006	0.00000E+000	1.40002E-001	0.00000E+000	9	...........	1467.52
	1161	14.525	1.38997E-001	-3.68064E-006	0.00000E+000	1.39002E-001	0.00000E+000	9	...........	1467.52
	1162	14.5375	1.38005E-001	-3.67619E-006	0.00000E+000	1.38002E-001	0.00000E+000	9	...........	1467.52
	1163	14.55	1.36999E-001	-3.73171E-006	0.00000E+000	1.37003E-001	0.00000E+000	9	...........	1467.52
	1164	14.5625	1.35999E-001	-3.75078E-006	0.00000E+000	1.36003E-001	0.00000E+000	9	...........	1467.52
	1165	14.575	1.35003E-001	-3.75866E-006	0.00000E+000	1.35003E-001	0.00000E+000	9	...........	1467.52
	1166	14.5875	1.34003E-001	-3.82100E-006	0.00000E+000	1.34004E-001	0.00000E+000	9	...........	1467.52
	1167	14.6	1.33012E-001	-3.82403E-006	0.00000E+000	1.33004E-001	0.00000E+000	9	...........	1467.52
	1168	14.6125	1.32016E-001	-3.85370E-006	0.00000E+000	1.32004E-001	0.00000E+000	9	...........	1467.52
	1169	14.625	1.31016E-001	-3.90561E-006	0.00000E+000	1.31005E-001	0.00000E+000	9	...........	1467.52
	1170	14.6375	1.30009E-001	-3.89656E-006	0.00000E+000	1.30005E-001	0.00000E+000	9	...........	1467.52
	1171	14.65	1.29012E-001	-3.95057E-006	0.00000E+000	1.29005E-001	0.00000E+000	9	...........	1467.52
	1172	14.6625	1.28015E-001	-3.97423E-006	0.00000E+000	1.28006E-001	0.00000E+000	9	...........	1467.52
	1173	14.675	1.26999E-001	-3.97904E-006	0.00000E+000	1.27006E-001	0.00000E+000	9	...........	1467.52
	1174	14.6875	1.26009E-001	-4.04815E-006	0.00000E+000	1.26006E-001	0.00000E+000	9	...........	1467.52
	1175	14.7	1.25013E-001	-4.04200E-006	0.00000E+000	1.25007E-001	0.00000E+000	9	...........	1467.52
	1176	14.7125	1.24005E-001	-4.07982E-006	0.00000E+000	1.24007E-001	0.00000E+000	9	...........	1467.52
	1177	14.725	1.23006E-001	-4.12278E-006	0.00000E+000	1.23008E-001	0.00000E+000	9	...........	1467.52
	1178	14.7375	1.22024E-001	-4.11850E-006	0.00000E+000	1.22008E-001	0.00000E+000	9	...........	1467.52
	1179	14.75	1.21015E-001	-4.17032E-006	0.00000E+000	1.21008E-001	0.00000E+000	9	...........	1467.52
	1180	14.7625	1.20027E-001	-4.19046E-006	0.00000E+000	1.20009E-001	0.00000E+000	9	...........	1467.52
	1181	14.775	1.19022E-001	-4.20173E-006	0.00000E+000	1.19009E-001	0.00000E+000	9	...........	1467.52
	1182	14.7875	1.17998E-001	-4.27877E-006	0.00000E+000	1.17997E-001	0.00000E+000	9	...........	1467.52
	1183	14.8	1.17011E-001	-4.26736E-006	0.00000E+000	1.16997E-001	0.00000E+000	9	...........	1467.52
	1184	14.8125	1.16020E-001	-4.29935E-006	0.00000E+000	1.15997E-001	0.00000E+000	9	...........	1467.52
	1185	14.825	1.15010E-001	-4.35220E-006	0.00000E+000	1.14998E-001	0.00000E+000	9	...........	1467.52
	1186	14.8375	1.13984E-001	-4.34569E-006	0.00000E+000	1.13998E-001	0.00000E+000	9	...........	1467.52
	1187	14.85	1.12997E-001	-4.40406E-006	0.00000E+000	1.12999E-001	0.00000E+000	9	...........	1467.52
	1188	14.8625	1.11998E-001	-4.42990E-006	0.00000E+000	1.11999E-001	0.00000E+000	9	...........	1467.52
	1189	14.875	1.11008E-001	-4.43521E-006	0.00000E+000	1.10999E-001	0.00000E+000	9	...........	1467.52
	1190	14.8875	1.10017E-001	-4.49585E-006	0.00000E+000	1.10000E-001	0.00000E+000	9	...........	1467.52
	1191	14.9	1.09019E-001	-4.49928E-006	0.00000E+000	1.09000E-001	0.00000E+000	9	...........	1467.52
	1192	14.9125	1.08019E-001	-4.53065E-006	0.00000E+000	1.08000E-001	0.00000E+000	9	...........	1467.52
	1193	14.925	1.07012E-001	-4.58496E-006	0.00000E+000	1.07001E-001	0.00000E+000	9	...........	1467.52
	1194	14.9375	1.06003E-001	-4.56923E-006	0.00000E+000	1.06001E-001	0.00000E+000	9	...........	1467.52
	1195	14.95	1.05000E-001	-4.63611E-006	0.00000E+000	1.05001E-001	0.00000E+000	9	...........	1467.52
	1196	14.9625	1.04015E-001	-4.66093E-006	0.00000E+000	1.04002E-001	0.00000E+000	9	...........	1467.52
	1197	14.975	1.03020E-001	-4.66093E-006	0.00000E+000	1.03002E-001	0.00000E+000	9	...........	1467.52
	1198	14.9875	1.01999E-001	-4.73342E-006	0.00000E+000	1.02002E-001	0.00000E+000	9	...........	1467.52
	1199	15	1.01007E-001	-4.73485E-006	0.00000E+000	1.01003E-001	0.00000E+000	9	...........	1467.52
	1200	15.0125	1.00008E-001	-4.77352E-006	0.00000E+000	1.00003E-001	0.00000E+000	9	...........	1467.52
CURVE4	TABLE
	Pt	T	Vf	Im	Vu	Sig	Ach	IERange	Over	Temp
	#	s	V vs. Ref.	A	V	V	V	#	bits	deg C
	1201	15.025	9.99876E-002	-3.60004E-006	0.00000E+000	1.00003E-001	0.00000E+000	9	...........	1467.52