File: input/ECSA_test/CV_ECSA_#2_#3.DTA
EXPLAIN
TAG	CV
TITLE	LABEL	ECSA	Test Identifier
DATE	LABEL	2/13/2024	Date
TIME	LABEL	12:03:14	Time
NOTES	NOTES	1	Notes...

PSTAT	PSTAT	IFC1010-36068	Potentiostat
VINIT	POTEN	1.00000E-001	F	Initial E (V)
VLIMIT1	POTEN	3.00000E-001	F	Scan Limit 1 (V)
VLIMIT2	POTEN	1.00000E-001	F	Scan Limit 2 (V)
VFINAL	POTEN	1.00000E-001	F	Final E (V)
SCANRATE	QUANT	3.00000E+001	A Real Number
STEPSIZE	QUANT	1.00000E+000	Step Size (mV)
CYCLES	IQUANT	3	Cycles (#)
IMODE	SELECTOR	1	I/E Range Mode
IRANGE	QUANT	3.00000E-001	Max Current (mA)
AREA	QUANT	1.00000E+000	Sample Area (cm^2)
EQDELAY	QUANT	0.00000E+000	Equil. Time (s)
IRCOMP	SELECTOR	0	IRComp
PFCOR	QUANT	5.00000E+001	PF Corr. (ohm)
SAMPLINGMODE	SELECTOR	2	Sampling Mode
EOC	QUANT	0.3246219	Open Circuit (V)
ELECTRODETYPE	SELECTOR	0	Electrode Type
STRIPPING	TOGGLE	F	Used for Stripping
SEQUENCER	TOGGLE	TRUE	Run as Sequence
PSTATMODEL	IQUANT	64	Pstat Model
PSTATSECTION	LABEL	IFC1010-36068	Pstat Section
PSTATSERIALNO	LABEL	36068	Pstat Serial Number
CTRLMODE	IQUANT	1	Control Mode
ELECTROMETER	IQUANT	0	RE=0 or CS=1
IESTAB	IQUANT	2	I/E Stability
CASPEED	IQUANT	4	Control Amp Speed
CONVENTION	IQUANT	1	Current Convention
ICHRANGE	IQUANT	2	Ich Range
ICHRANGEMODE	TOGGLE	F	Ich Auto Range
ICHOFFSETENABLE	TOGGLE	F	Ich Offset Enable
ICHOFFSET	QUANT	0	Ich Offset (V)
ICHFILTER	IQUANT	3	Ich Filter
VCHRANGE	IQUANT	2	Vch Range
VCHRANGEMODE	TOGGLE	F	Vch Auto Range
VCHOFFSETENABLE	TOGGLE	F	Vch Offset Enable
VCHOFFSET	QUANT	0	Vch Offset (V)
VCHFILTER	IQUANT	3	Vch Filter
IERANGELOWERLIMIT	IQUANT	4	I/E Range Lower Limit
IERANGEMODE	TOGGLE	F	I/E AutoRange
IERANGE	IQUANT	9	I/E Range
ACHSELECT	IQUANT	0	Ach Select
ACHRANGE	IQUANT	2	Ach Range
ACHOFFSETENABLE	TOGGLE	F	Ach Offset Enable
ACHOFFSET	QUANT	0	Ach Offset (V)
ACHFILTER	IQUANT	1	Ach Filter
SENSECABLEID	IQUANT	13	Sense Cable ID
PWRCABLEID	IQUANT	13	Power Cable ID
DCCALDATE	LABEL	8/11/2023	DC Calibration Date
ACCALDATE	LABEL	6/2/2023	AC Calibration Date
FRAMEWORKVERSION	LABEL	7.10.3	Framework Version
INSTRUMENTVERSION	LABEL	4.91	Instrument Version
COMMVERSION	LABEL	3.10	Communications Version
CPUPLDVERSION	LABEL	2.22	CPU PLD Version
CTRLPLDVERSION	LABEL	0.00	CTRL PLD Version
PSTATPLDVERSION	LABEL	0.00	PSTAT PLD Version
CURVE1	TABLE
	Pt	T	Vf	Im	Vu	Sig	Ach	IERange	Over	Temp
	#	s	V vs. Ref.	A	V	V	V	#	bits	deg C
	0	0.033333	9.99932E-002	-1.81298E-006	0.00000E+000	1.00003E-001	0.00000E+000	9	...........	1467.52
	1	0.066667	1.00984E-001	-1.26159E-006	0.00000E+000	1.01003E-001	0.00000E+000	9	...........	1467.52
	2	0.1	1.01979E-001	-1.16590E-006	0.00000E+000	1.02002E-001	0.00000E+000	9	...........	1467.52
	3	0.133333	1.03004E-001	-1.08923E-006	0.00000E+000	1.03002E-001	0.00000E+000	9	...........	1467.52
	4	0.166667	1.04003E-001	-1.03734E-006	0.00000E+000	1.04002E-001	0.00000E+000	9	...........	1467.52
	5	0.2	1.04984E-001	-9.77369E-007	0.00000E+000	1.05001E-001	0.00000E+000	9	...........	1467.52
	6	0.233333	1.05990E-001	-9.15284E-007	0.00000E+000	1.06001E-001	0.00000E+000	9	...........	1467.52
	7	0.266667	1.06984E-001	-8.77235E-007	0.00000E+000	1.07001E-001	0.00000E+000	9	...........	1467.52
	8	0.3	1.07978E-001	-8.26192E-007	0.00000E+000	1.08000E-001	0.00000E+000	9	...........	1467.52
	9	0.333333	1.08987E-001	-7.73163E-007	0.00000E+000	1.09000E-001	0.00000E+000	9	...........	1467.52
	10	0.366667	1.09968E-001	-7.41720E-007	0.00000E+000	1.10000E-001	0.00000E+000	9	...........	1467.52
	11	0.4	1.10964E-001	-7.00168E-007	0.00000E+000	1.10999E-001	0.00000E+000	9	...........	1467.52
	12	0.433333	1.11975E-001	-6.49859E-007	0.00000E+000	1.11999E-001	0.00000E+000	9	...........	1467.52
	13	0.466667	1.12972E-001	-6.23737E-007	0.00000E+000	1.12999E-001	0.00000E+000	9	...........	1467.52
	14	0.5	1.13970E-001	-5.83620E-007	0.00000E+000	1.13998E-001	0.00000E+000	9	...........	1467.52
	15	0.533333	1.14978E-001	-5.39783E-007	0.00000E+000	1.14998E-001	0.00000E+000	9	...........	1467.52
	16	0.566667	1.15994E-001	-5.15545E-007	0.00000E+000	1.15997E-001	0.00000E+000	9	...........	1467.52
	17	0.6	1.16994E-001	-4.79749E-007	0.00000E+000	1.16997E-001	0.00000E+000	9	...........	1467.52
	18	0.633333	1.17988E-001	-4.39631E-007	0.00000E+000	1.17997E-001	0.00000E+000	9	...........	1467.52
	19	0.666667	1.18994E-001	-4.14076E-007	0.00000E+000	1.18996E-001	0.00000E+000	9	...........	1467.79
	20	0.7	1.19992E-001	-3.78313E-007	0.00000E+000	1.19996E-001	0.00000E+000	9	...........	1467.79
	21	0.733333	1.20988E-001	-3.34893E-007	0.00000E+000	1.20996E-001	0.00000E+000	9	...........	1467.79
	22	0.766667	1.21989E-001	-3.12574E-007	0.00000E+000	1.21995E-001	0.00000E+000	9	...........	1467.79
	23	0.8	1.22976E-001	-2.78895E-007	0.00000E+000	1.22995E-001	0.00000E+000	9	...........	1467.79
	24	0.833333	1.23960E-001	-2.40146E-007	0.00000E+000	1.23995E-001	0.00000E+000	9	...........	1467.79
	25	0.866667	1.24965E-001	-2.18895E-007	0.00000E+000	1.24994E-001	0.00000E+000	9	...........	1467.79
	26	0.9	1.25958E-001	-1.87335E-007	0.00000E+000	1.25994E-001	0.00000E+000	9	...........	1467.79
	27	0.933333	1.26974E-001	-1.46300E-007	0.00000E+000	1.27006E-001	0.00000E+000	9	...........	1467.79
	28	0.96667	1.27990E-001	-1.30270E-007	0.00000E+000	1.28006E-001	0.00000E+000	9	...........	1467.79
	29	1	1.28998E-001	-1.02746E-007	0.00000E+000	1.29005E-001	0.00000E+000	9	...........	1467.79
	30	1.03333	1.29998E-001	-7.01021E-008	0.00000E+000	1.30005E-001	0.00000E+000	9	...........	1467.79
	31	1.06667	1.31007E-001	-5.61069E-008	0.00000E+000	1.31005E-001	0.00000E+000	9	...........	1467.79
	32	1.1	1.32012E-001	-2.51974E-008	0.00000E+000	1.32004E-001	0.00000E+000	9	...........	1467.79
	33	1.13333	1.33000E-001	9.89893E-009	0.00000E+000	1.33004E-001	0.00000E+000	9	...........	1467.79
	34	1.16667	1.33990E-001	2.23094E-008	0.00000E+000	1.34004E-001	0.00000E+000	9	...........	1467.79
	35	1.2	1.34991E-001	5.06667E-008	0.00000E+000	1.35003E-001	0.00000E+000	9	...........	1467.79
	36	1.23333	1.35983E-001	8.78982E-008	0.00000E+000	1.36003E-001	0.00000E+000	9	...........	1467.79
	37	1.26667	1.36978E-001	1.04896E-007	0.00000E+000	1.37003E-001	0.00000E+000	9	...........	1467.79
	38	1.3	1.37984E-001	1.38574E-007	0.00000E+000	1.38002E-001	0.00000E+000	9	...........	1467.79
	39	1.33333	1.38985E-001	1.75522E-007	0.00000E+000	1.39002E-001	0.00000E+000	9	...........	1467.79
	40	1.36667	1.39977E-001	1.88166E-007	0.00000E+000	1.40002E-001	0.00000E+000	9	...........	1467.79
	41	1.4	1.41000E-001	2.12187E-007	0.00000E+000	1.41001E-001	0.00000E+000	9	...........	1467.79
	42	1.43333	1.41994E-001	2.44464E-007	0.00000E+000	1.42001E-001	0.00000E+000	9	...........	1467.79
	43	1.46667	1.42990E-001	2.54589E-007	0.00000E+000	1.43001E-001	0.00000E+000	9	...........	1467.79
	44	1.5	1.43987E-001	2.77992E-007	0.00000E+000	1.44000E-001	0.00000E+000	9	...........	1467.79
	45	1.53333	1.44984E-001	3.14773E-007	0.00000E+000	1.45000E-001	0.00000E+000	9	...........	1467.79
	46	1.56667	1.45981E-001	3.24732E-007	0.00000E+000	1.46000E-001	0.00000E+000	9	...........	1467.79
	47	1.6	1.46985E-001	3.51638E-007	0.00000E+000	1.46999E-001	0.00000E+000	9	...........	1467.79
	48	1.63333	1.47983E-001	3.82264E-007	0.00000E+000	1.47999E-001	0.00000E+000	9	...........	1467.79
	49	1.66667	1.48974E-001	3.92890E-007	0.00000E+000	1.48998E-001	0.00000E+000	9	...........	1467.52
	50	1.7	1.49969E-001	4.21380E-007	0.00000E+000	1.49998E-001	0.00000E+000	9	...........	1467.52
	51	1.73333	1.50971E-001	4.58111E-007	0.00000E+000	1.50998E-001	0.00000E+000	9	...........	1467.52
	52	1.76667	1.51969E-001	4.67736E-007	0.00000E+000	1.51997E-001	0.00000E+000	9	...........	1467.52
	53	1.8	1.52956E-001	4.90706E-007	0.00000E+000	1.52997E-001	0.00000E+000	9	...........	1467.52
	54	1.83333	1.53965E-001	5.16878E-007	0.00000E+000	1.53997E-001	0.00000E+000	9	...........	1467.52
	55	1.86667	1.54976E-001	5.31373E-007	0.00000E+000	1.54996E-001	0.00000E+000	9	...........	1467.52
	56	1.9	1.55981E-001	5.53208E-007	0.00000E+000	1.55996E-001	0.00000E+000	9	...........	1467.52
	57	1.93333	1.56989E-001	5.80665E-007	0.00000E+000	1.56996E-001	0.00000E+000	9	...........	1467.52
	58	1.96667	1.57988E-001	5.95561E-007	0.00000E+000	1.57995E-001	0.00000E+000	9	...........	1467.52
	59	2	1.58971E-001	6.19047E-007	0.00000E+000	1.58995E-001	0.00000E+000	9	...........	1467.52
	60	2.03333	1.59971E-001	6.48973E-007	0.00000E+000	1.59995E-001	0.00000E+000	9	...........	1467.52
	61	2.06667	1.60971E-001	6.58998E-007	0.00000E+000	1.60994E-001	0.00000E+000	9	...........	1467.52
	62	2.1	1.61966E-001	6.81233E-007	0.00000E+000	1.61994E-001	0.00000E+000	9	...........	1467.52
	63	2.13333	1.62975E-001	7.17064E-007	0.00000E+000	1.63006E-001	0.00000E+000	9	...........	1467.52
	64	2.16667	1.63983E-001	7.21301E-007	0.00000E+000	1.64006E-001	0.00000E+000	9	...........	1467.52
	65	2.2	1.64974E-001	7.45221E-007	0.00000E+000	1.65005E-001	0.00000E+000	9	...........	1467.52
	66	2.23333	1.65962E-001	7.78499E-007	0.00000E+000	1.66005E-001	0.00000E+000	9	...........	1467.52
	67	2.26667	1.66997E-001	7.83286E-007	0.00000E+000	1.67005E-001	0.00000E+000	9	...........	1467.52
	68	2.3	1.67994E-001	8.02836E-007	0.00000E+000	1.68004E-001	0.00000E+000	9	...........	1467.52
	69	2.33333	1.68991E-001	8.33612E-007	0.00000E+000	1.69004E-001	0.00000E+000	9	...........	1467.52
	70	2.36667	1.69987E-001	8.41803E-007	0.00000E+000	1.70004E-001	0.00000E+000	9	...........	1467.52
	71	2.4	1.70974E-001	8.64905E-007	0.00000E+000	1.71003E-001	0.00000E+000	9	...........	1467.52
	72	2.43333	1.71973E-001	8.94430E-007	0.00000E+000	1.72003E-001	0.00000E+000	9	...........	1467.52
	73	2.46667	1.72983E-001	9.01586E-007	0.00000E+000	1.73003E-001	0.00000E+000	9	...........	1467.52
	74	2.5	1.73980E-001	9.22137E-007	0.00000E+000	1.74002E-001	0.00000E+000	9	...........	1467.52
	75	2.53333	1.74976E-001	9.48710E-007	0.00000E+000	1.75002E-001	0.00000E+000	9	...........	1467.52
	76	2.56667	1.75982E-001	9.63789E-007	0.00000E+000	1.76002E-001	0.00000E+000	9	...........	1467.52
	77	2.6	1.76973E-001	9.83189E-007	0.00000E+000	1.77001E-001	0.00000E+000	9	...........	1467.52
	78	2.63333	1.77969E-001	1.01291E-006	0.00000E+000	1.78001E-001	0.00000E+000	9	...........	1467.52
	79	2.66667	1.78971E-001	1.02282E-006	0.00000E+000	1.79000E-001	0.00000E+000	9	...........	1467.52
	80	2.7	1.79986E-001	1.03900E-006	0.00000E+000	1.80000E-001	0.00000E+000	9	...........	1467.52
	81	2.73333	1.81003E-001	1.06794E-006	0.00000E+000	1.81000E-001	0.00000E+000	9	...........	1467.52
	82	2.76667	1.81996E-001	1.07718E-006	0.00000E+000	1.81999E-001	0.00000E+000	9	...........	1467.52
	83	2.8	1.82987E-001	1.09819E-006	0.00000E+000	1.82999E-001	0.00000E+000	9	...........	1467.52
	84	2.83333	1.83994E-001	1.12718E-006	0.00000E+000	1.83999E-001	0.00000E+000	9	...........	1467.52
	85	2.86667	1.84986E-001	1.13340E-006	0.00000E+000	1.84998E-001	0.00000E+000	9	...........	1467.52
	86	2.9	1.85985E-001	1.15218E-006	0.00000E+000	1.85998E-001	0.00000E+000	9	...........	1467.52
	87	2.93333	1.86986E-001	1.17614E-006	0.00000E+000	1.86998E-001	0.00000E+000	9	...........	1467.52
	88	2.96667	1.87982E-001	1.18763E-006	0.00000E+000	1.87997E-001	0.00000E+000	9	...........	1467.52
	89	3	1.88968E-001	1.20134E-006	0.00000E+000	1.88997E-001	0.00000E+000	9	...........	1467.52
	90	3.03333	1.89959E-001	1.23051E-006	0.00000E+000	1.89997E-001	0.00000E+000	9	...........	1467.52
	91	3.06667	1.90964E-001	1.24029E-006	0.00000E+000	1.90996E-001	0.00000E+000	9	...........	1467.52
	92	3.1	1.91998E-001	1.25902E-006	0.00000E+000	1.91996E-001	0.00000E+000	9	...........	1467.52
	93	3.13333	1.93001E-001	1.28813E-006	0.00000E+000	1.92996E-001	0.00000E+000	9	...........	1467.52
	94	3.16667	1.93991E-001	1.29687E-006	0.00000E+000	1.93995E-001	0.00000E+000	9	...........	1467.52
	95	3.2	1.94979E-001	1.31859E-006	0.00000E+000	1.94995E-001	0.00000E+000	9	...........	1467.52
	96	3.23333	1.95973E-001	1.34548E-006	0.00000E+000	1.95995E-001	0.00000E+000	9	...........	1467.52
	97	3.26667	1.96964E-001	1.35003E-006	0.00000E+000	1.96994E-001	0.00000E+000	9	...........	1467.52
	98	3.3	1.97961E-001	1.36721E-006	0.00000E+000	1.97994E-001	0.00000E+000	9	...........	1467.52
	99	3.33333	1.98995E-001	1.40126E-006	0.00000E+000	1.99006E-001	0.00000E+000	9	...........	1467.52
	100	3.36667	1.99996E-001	1.40176E-006	0.00000E+000	2.00006E-001	0.00000E+000	9	...........	1467.52
	101	3.4	2.00984E-001	1.42221E-006	0.00000E+000	2.01005E-001	0.00000E+000	9	...........	1467.52
	102	3.43333	2.01983E-001	1.44850E-006	0.00000E+000	2.02005E-001	0.00000E+000	9	...........	1467.52
	103	3.46667	2.02982E-001	1.45649E-006	0.00000E+000	2.03005E-001	0.00000E+000	9	...........	1467.52
	104	3.5	2.03983E-001	1.47207E-006	0.00000E+000	2.04004E-001	0.00000E+000	9	...........	1467.52
	105	3.53333	2.04996E-001	1.50208E-006	0.00000E+000	2.05004E-001	0.00000E+000	9	...........	1467.52
	106	3.56667	2.05988E-001	1.50900E-006	0.00000E+000	2.06004E-001	0.00000E+000	9	...........	1467.52
	107	3.6	2.06975E-001	1.52717E-006	0.00000E+000	2.07003E-001	0.00000E+000	9	...........	1467.52
	108	3.63333	2.07983E-001	1.55451E-006	0.00000E+000	2.08003E-001	0.00000E+000	9	...........	1467.52
	109	3.66667	2.08978E-001	1.56401E-006	0.00000E+000	2.09003E-001	0.00000E+000	9	...........	1467.52
	110	3.7	2.09977E-001	1.57978E-006	0.00000E+000	2.10002E-001	0.00000E+000	9	...........	1467.52
	111	3.73333	2.10974E-001	1.60787E-006	0.00000E+000	2.11002E-001	0.00000E+000	9	...........	1467.52
	112	3.76667	2.11980E-001	1.61504E-006	0.00000E+000	2.12001E-001	0.00000E+000	9	...........	1467.52
	113	3.8	2.12966E-001	1.62952E-006	0.00000E+000	2.13001E-001	0.00000E+000	9	...........	1467.52
	114	3.83333	2.13958E-001	1.65587E-006	0.00000E+000	2.14001E-001	0.00000E+000	9	...........	1467.52
	115	3.86667	2.14965E-001	1.66792E-006	0.00000E+000	2.15000E-001	0.00000E+000	9	...........	1467.52
	116	3.9	2.15962E-001	1.67576E-006	0.00000E+000	2.16000E-001	0.00000E+000	9	...........	1467.52
	117	3.93333	2.16960E-001	1.70820E-006	0.00000E+000	2.17000E-001	0.00000E+000	9	...........	1467.52
	118	3.96667	2.17989E-001	1.71798E-006	0.00000E+000	2.17999E-001	0.00000E+000	9	...........	1467.52
	119	4	2.18972E-001	1.73030E-006	0.00000E+000	2.18999E-001	0.00000E+000	9	...........	1467.52
	120	4.03333	2.19977E-001	1.76171E-006	0.00000E+000	2.19999E-001	0.00000E+000	9	...........	1467.52
	121	4.06667	2.20991E-001	1.76994E-006	0.00000E+000	2.20998E-001	0.00000E+000	9	...........	1467.52
	122	4.1	2.21977E-001	1.78503E-006	0.00000E+000	2.21998E-001	0.00000E+000	9	...........	1467.52
	123	4.13333	2.22973E-001	1.81326E-006	0.00000E+000	2.22998E-001	0.00000E+000	9	...........	1467.52
	124	4.16667	2.23981E-001	1.82070E-006	0.00000E+000	2.23997E-001	0.00000E+000	9	...........	1467.52
	125	4.2	2.24961E-001	1.83549E-006	0.00000E+000	2.24997E-001	0.00000E+000	9	...........	1467.52
	126	4.23333	2.25951E-001	1.86253E-006	0.00000E+000	2.25997E-001	0.00000E+000	9	...........	1467.52
	127	4.26667	2.26951E-001	1.87079E-006	0.00000E+000	2.26996E-001	0.00000E+000	9	...........	1467.52
	128	4.3	2.27953E-001	1.88815E-006	0.00000E+000	2.27996E-001	0.00000E+000	9	...........	1467.52
	129	4.33333	2.28955E-001	1.91700E-006	0.00000E+000	2.28996E-001	0.00000E+000	9	...........	1467.52
	130	4.36667	2.29959E-001	1.91868E-006	0.00000E+000	2.29995E-001	0.00000E+000	9	...........	1467.52
	131	4.4	2.30972E-001	1.93614E-006	0.00000E+000	2.30995E-001	0.00000E+000	9	...........	1467.52
	132	4.43333	2.31974E-001	1.96469E-006	0.00000E+000	2.31994E-001	0.00000E+000	9	...........	1467.52
	133	4.46667	2.32965E-001	1.97373E-006	0.00000E+000	2.32994E-001	0.00000E+000	9	...........	1467.52
	134	4.5	2.33969E-001	1.98634E-006	0.00000E+000	2.33994E-001	0.00000E+000	9	...........	1467.52
	135	4.53333	2.34964E-001	2.01806E-006	0.00000E+000	2.35006E-001	0.00000E+000	9	...........	1467.52
	136	4.56667	2.35962E-001	2.02082E-006	0.00000E+000	2.36006E-001	0.00000E+000	9	...........	1467.52
	137	4.6	2.36972E-001	2.03621E-006	0.00000E+000	2.37005E-001	0.00000E+000	9	...........	1467.52
	138	4.63333	2.37971E-001	2.06324E-006	0.00000E+000	2.38005E-001	0.00000E+000	9	...........	1467.52
	139	4.66667	2.38973E-001	2.07293E-006	0.00000E+000	2.39005E-001	0.00000E+000	9	...........	1467.52
	140	4.7	2.39975E-001	2.08969E-006	0.00000E+000	2.40004E-001	0.00000E+000	9	...........	1467.52
	141	4.73333	2.40963E-001	2.11845E-006	0.00000E+000	2.41004E-001	0.00000E+000	9	...........	1467.52
	142	4.76667	2.41966E-001	2.12941E-006	0.00000E+000	2.42004E-001	0.00000E+000	9	...........	1467.52
	143	4.8	2.42973E-001	2.14073E-006	0.00000E+000	2.43003E-001	0.00000E+000	9	...........	1467.52
	144	4.83333	2.43989E-001	2.17003E-006	0.00000E+000	2.44003E-001	0.00000E+000	9	...........	1467.52
	145	4.86667	2.44987E-001	2.17780E-006	0.00000E+000	2.45002E-001	0.00000E+000	9	...........	1467.52
	146	4.9	2.45977E-001	2.19535E-006	0.00000E+000	2.46002E-001	0.00000E+000	9	...........	1467.52
	147	4.93333	2.46970E-001	2.22197E-006	0.00000E+000	2.47002E-001	0.00000E+000	9	...........	1467.52
	148	4.96667	2.47979E-001	2.23191E-006	0.00000E+000	2.48001E-001	0.00000E+000	9	...........	1467.52
	149	5	2.48972E-001	2.24434E-006	0.00000E+000	2.49001E-001	0.00000E+000	9	...........	1467.52
	150	5.03333	2.49979E-001	2.27151E-006	0.00000E+000	2.50001E-001	0.00000E+000	9	...........	1467.52
	151	5.06667	2.50972E-001	2.28474E-006	0.00000E+000	2.51000E-001	0.00000E+000	9	...........	1467.52
	152	5.1	2.51970E-001	2.29680E-006	0.00000E+000	2.52000E-001	0.00000E+000	9	...........	1467.52
	153	5.13333	2.52970E-001	2.32923E-006	0.00000E+000	2.53000E-001	0.00000E+000	9	...........	1467.52
	154	5.16667	2.53958E-001	2.33333E-006	0.00000E+000	2.53999E-001	0.00000E+000	9	...........	1467.52
	155	5.2	2.54955E-001	2.35046E-006	0.00000E+000	2.54999E-001	0.00000E+000	9	...........	1467.52
	156	5.23333	2.55967E-001	2.38105E-006	0.00000E+000	2.55999E-001	0.00000E+000	9	...........	1467.52
	157	5.26667	2.56966E-001	2.38569E-006	0.00000E+000	2.56998E-001	0.00000E+000	9	...........	1467.52
	158	5.3	2.57975E-001	2.40162E-006	0.00000E+000	2.57998E-001	0.00000E+000	9	...........	1467.52
	159	5.33333	2.58973E-001	2.43697E-006	0.00000E+000	2.58998E-001	0.00000E+000	9	...........	1467.52
	160	5.36667	2.59969E-001	2.44214E-006	0.00000E+000	2.59997E-001	0.00000E+000	9	...........	1467.52
	161	5.4	2.60968E-001	2.45493E-006	0.00000E+000	2.60997E-001	0.00000E+000	9	...........	1467.52
	162	5.43333	2.61962E-001	2.48291E-006	0.00000E+000	2.61997E-001	0.00000E+000	9	...........	1467.52
	163	5.46667	2.62967E-001	2.49243E-006	0.00000E+000	2.62996E-001	0.00000E+000	9	...........	1467.52
	164	5.5	2.63958E-001	2.50973E-006	0.00000E+000	2.63996E-001	0.00000E+000	9	...........	1467.52
	165	5.53333	2.64957E-001	2.53857E-006	0.00000E+000	2.64995E-001	0.00000E+000	9	...........	1467.52
	166	5.56667	2.65961E-001	2.55353E-006	0.00000E+000	2.65995E-001	0.00000E+000	9	...........	1467.52
	167	5.6	2.66950E-001	2.56816E-006	0.00000E+000	2.66995E-001	0.00000E+000	9	...........	1467.52
	168	5.63333	2.67950E-001	2.59957E-006	0.00000E+000	2.67994E-001	0.00000E+000	9	...........	1467.52
	169	5.66667	2.69000E-001	2.61212E-006	0.00000E+000	2.68994E-001	0.00000E+000	9	...........	1467.52
	170	5.7	2.69983E-001	2.62313E-006	0.00000E+000	2.69994E-001	0.00000E+000	9	...........	1467.52
	171	5.73333	2.70988E-001	2.66319E-006	0.00000E+000	2.71006E-001	0.00000E+000	9	...........	1467.52
	172	5.76667	2.71984E-001	2.66788E-006	0.00000E+000	2.72006E-001	0.00000E+000	9	...........	1467.52
	173	5.8	2.72973E-001	2.68228E-006	0.00000E+000	2.73005E-001	0.00000E+000	9	...........	1467.52
	174	5.83333	2.73973E-001	2.71726E-006	0.00000E+000	2.74005E-001	0.00000E+000	9	...........	1467.52
	175	5.86667	2.74972E-001	2.72563E-006	0.00000E+000	2.75004E-001	0.00000E+000	9	...........	1467.52
	176	5.9	2.75977E-001	2.73952E-006	0.00000E+000	2.76004E-001	0.00000E+000	9	...........	1467.52
	177	5.93333	2.76981E-001	2.76858E-006	0.00000E+000	2.77004E-001	0.00000E+000	9	...........	1467.52
	178	5.96667	2.77972E-001	2.77816E-006	0.00000E+000	2.78003E-001	0.00000E+000	9	...........	1467.52
	179	6	2.78968E-001	2.79677E-006	0.00000E+000	2.79003E-001	0.00000E+000	9	...........	1467.52
	180	6.03333	2.79961E-001	2.82675E-006	0.00000E+000	2.80003E-001	0.00000E+000	9	...........	1467.52
	181	6.06667	2.80960E-001	2.83986E-006	0.00000E+000	2.81002E-001	0.00000E+000	9	...........	1467.52
	182	6.1	2.81976E-001	2.85075E-006	0.00000E+000	2.82002E-001	0.00000E+000	9	...........	1467.52
	183	6.13333	2.82984E-001	2.88999E-006	0.00000E+000	2.83002E-001	0.00000E+000	9	...........	1467.52
	184	6.16667	2.83989E-001	2.90213E-006	0.00000E+000	2.84001E-001	0.00000E+000	9	...........	1467.52
	185	6.2	2.84985E-001	2.92123E-006	0.00000E+000	2.85001E-001	0.00000E+000	9	...........	1467.52
	186	6.23333	2.85986E-001	2.95050E-006	0.00000E+000	2.86001E-001	0.00000E+000	9	...........	1467.52
	187	6.26667	2.86979E-001	2.95963E-006	0.00000E+000	2.87000E-001	0.00000E+000	9	...........	1467.52
	188	6.3	2.87995E-001	2.97861E-006	0.00000E+000	2.88000E-001	0.00000E+000	9	...........	1467.52
	189	6.33333	2.88986E-001	3.01080E-006	0.00000E+000	2.89000E-001	0.00000E+000	9	...........	1467.52
	190	6.36667	2.89980E-001	3.02620E-006	0.00000E+000	2.89999E-001	0.00000E+000	9	...........	1467.52
	191	6.4	2.90963E-001	3.04083E-006	0.00000E+000	2.90999E-001	0.00000E+000	9	...........	1467.52
	192	6.43333	2.91967E-001	3.07589E-006	0.00000E+000	2.91999E-001	0.00000E+000	9	...........	1467.52
	193	6.46667	2.92957E-001	3.09211E-006	0.00000E+000	2.92998E-001	0.00000E+000	9	...........	1467.52
	194	6.5	2.93948E-001	3.10930E-006	0.00000E+000	2.93998E-001	0.00000E+000	9	...........	1467.52
	195	6.53333	2.94980E-001	3.16078E-006	0.00000E+000	2.94998E-001	0.00000E+000	9	...........	1467.52
	196	6.56667	2.95974E-001	3.16031E-006	0.00000E+000	2.95997E-001	0.00000E+000	9	...........	1467.52
	197	6.6	2.96965E-001	3.17820E-006	0.00000E+000	2.96997E-001	0.00000E+000	9	...........	1467.52
	198	6.63333	2.97974E-001	3.20927E-006	0.00000E+000	2.97996E-001	0.00000E+000	9	...........	1467.53
	199	6.66667	2.98972E-001	3.22128E-006	0.00000E+000	2.98996E-001	0.00000E+000	9	...........	1467.61
	200	6.7	2.99973E-001	3.23828E-006	0.00000E+000	2.99996E-001	0.00000E+000	9	...........	1467.61
	201	6.73333	2.98984E-001	2.19530E-006	0.00000E+000	2.98996E-001	0.00000E+000	9	...........	1467.61
	202	6.76667	2.97985E-001	2.05269E-006	0.00000E+000	2.97996E-001	0.00000E+000	9	...........	1467.61
	203	6.8	2.96986E-001	1.95503E-006	0.00000E+000	2.96997E-001	0.00000E+000	9	...........	1467.61
	204	6.83333	2.96002E-001	1.88298E-006	0.00000E+000	2.95997E-001	0.00000E+000	9	...........	1467.61
	205	6.86667	2.95005E-001	1.81122E-006	0.00000E+000	2.94998E-001	0.00000E+000	9	...........	1467.61
	206	6.9	2.93972E-001	1.75127E-006	0.00000E+000	2.93998E-001	0.00000E+000	9	...........	1467.61
	207	6.93333	2.92975E-001	1.70687E-006	0.00000E+000	2.92998E-001	0.00000E+000	9	...........	1467.61
	208	6.96667	2.91976E-001	1.64815E-006	0.00000E+000	2.91999E-001	0.00000E+000	9	...........	1467.61
	209	7	2.90970E-001	1.59586E-006	0.00000E+000	2.90999E-001	0.00000E+000	9	...........	1467.61
	210	7.03333	2.89983E-001	1.56064E-006	0.00000E+000	2.89999E-001	0.00000E+000	9	...........	1467.61
	211	7.06667	2.88990E-001	1.51230E-006	0.00000E+000	2.89000E-001	0.00000E+000	9	...........	1467.61
	212	7.1	2.87993E-001	1.46918E-006	0.00000E+000	2.88000E-001	0.00000E+000	9	...........	1467.61
	213	7.13333	2.86986E-001	1.44091E-006	0.00000E+000	2.87000E-001	0.00000E+000	9	...........	1467.61
	214	7.16667	2.85985E-001	1.39447E-006	0.00000E+000	2.86001E-001	0.00000E+000	9	...........	1467.61
	215	7.2	2.84988E-001	1.35283E-006	0.00000E+000	2.85001E-001	0.00000E+000	9	...........	1467.61
	216	7.23333	2.83996E-001	1.33252E-006	0.00000E+000	2.84001E-001	0.00000E+000	9	...........	1467.61
	217	7.26667	2.82994E-001	1.28564E-006	0.00000E+000	2.83002E-001	0.00000E+000	9	...........	1467.61
	218	7.3	2.81991E-001	1.25088E-006	0.00000E+000	2.82002E-001	0.00000E+000	9	...........	1467.61
	219	7.33333	2.80983E-001	1.23018E-006	0.00000E+000	2.81002E-001	0.00000E+000	9	...........	1467.61
	220	7.36667	2.79984E-001	1.19103E-006	0.00000E+000	2.80003E-001	0.00000E+000	9	...........	1467.61
	221	7.4	2.78991E-001	1.15852E-006	0.00000E+000	2.79003E-001	0.00000E+000	9	...........	1467.61
	222	7.43333	2.77999E-001	1.13822E-006	0.00000E+000	2.78003E-001	0.00000E+000	9	...........	1467.61
	223	7.46667	2.76992E-001	1.09980E-006	0.00000E+000	2.77004E-001	0.00000E+000	9	...........	1467.61
	224	7.5	2.75992E-001	1.06699E-006	0.00000E+000	2.76004E-001	0.00000E+000	9	...........	1467.61
	225	7.53333	2.74989E-001	1.04971E-006	0.00000E+000	2.75004E-001	0.00000E+000	9	...........	1467.61
	226	7.56667	2.73987E-001	1.01662E-006	0.00000E+000	2.74005E-001	0.00000E+000	9	...........	1467.61
	227	7.6	2.72981E-001	9.90678E-007	0.00000E+000	2.73005E-001	0.00000E+000	9	...........	1467.61
	228	7.63333	2.71988E-001	9.79652E-007	0.00000E+000	2.72006E-001	0.00000E+000	9	...........	1467.61
	229	7.66667	2.70998E-001	9.45107E-007	0.00000E+000	2.71006E-001	0.00000E+000	9	...........	1467.61
	230	7.7	2.69992E-001	9.08075E-007	0.00000E+000	2.69994E-001	0.00000E+000	9	...........	1467.61
	231	7.73333	2.68997E-001	8.99385E-007	0.00000E+000	2.68994E-001	0.00000E+000	9	...........	1467.61
	232	7.76667	2.67965E-001	8.63921E-007	0.00000E+000	2.67994E-001	0.00000E+000	9	...........	1467.61
	233	7.8	2.66954E-001	8.36265E-007	0.00000E+000	2.66995E-001	0.00000E+000	9	...........	1467.61
	234	7.83333	2.65967E-001	8.27340E-007	0.00000E+000	2.65995E-001	0.00000E+000	9	...........	1467.61
	235	7.86667	2.64968E-001	7.96664E-007	0.00000E+000	2.64995E-001	0.00000E+000	9	...........	1467.61
	236	7.9	2.63967E-001	7.68074E-007	0.00000E+000	2.63996E-001	0.00000E+000	9	...........	1467.61
	237	7.93333	2.62978E-001	7.54629E-007	0.00000E+000	2.62996E-001	0.00000E+000	9	...........	1467.61
	238	7.96667	2.61971E-001	7.19049E-007	0.00000E+000	2.61997E-001	0.00000E+000	9	...........	1467.61
	239	8	2.60976E-001	6.99782E-007	0.00000E+000	2.60997E-001	0.00000E+000	9	...........	1467.61
	240	8.03333	2.59972E-001	6.84670E-007	0.00000E+000	2.59997E-001	0.00000E+000	9	...........	1467.61
	241	8.06667	2.58973E-001	6.52092E-007	0.00000E+000	2.58998E-001	0.00000E+000	9	...........	1467.61
	242	8.1	2.57975E-001	6.24752E-007	0.00000E+000	2.57998E-001	0.00000E+000	9	...........	1467.61
	243	8.13333	2.56989E-001	6.16645E-007	0.00000E+000	2.56998E-001	0.00000E+000	9	...........	1467.61
	244	8.16667	2.55983E-001	5.86036E-007	0.00000E+000	2.55999E-001	0.00000E+000	9	...........	1467.61
	245	8.2	2.54970E-001	5.65519E-007	0.00000E+000	2.54999E-001	0.00000E+000	9	...........	1467.61
	246	8.23333	2.53972E-001	5.51690E-007	0.00000E+000	2.53999E-001	0.00000E+000	9	...........	1467.61
	247	8.26667	2.52978E-001	5.22899E-007	0.00000E+000	2.53000E-001	0.00000E+000	9	...........	1467.61
	248	8.3	2.51982E-001	4.94375E-007	0.00000E+000	2.52000E-001	0.00000E+000	9	...........	1467.61
	249	8.33333	2.50988E-001	4.89655E-007	0.00000E+000	2.51000E-001	0.00000E+000	9	...........	1467.61
	250	8.36667	2.49984E-001	4.60930E-007	0.00000E+000	2.50001E-001	0.00000E+000	9	...........	1467.61
	251	8.4	2.48983E-001	4.38044E-007	0.00000E+000	2.49001E-001	0.00000E+000	9	...........	1467.61
	252	8.43333	2.47982E-001	4.30505E-007	0.00000E+000	2.48001E-001	0.00000E+000	9	...........	1467.61
	253	8.46667	2.46983E-001	4.03182E-007	0.00000E+000	2.47002E-001	0.00000E+000	9	...........	1467.61
	254	8.5	2.45983E-001	3.76526E-007	0.00000E+000	2.46002E-001	0.00000E+000	9	...........	1467.61
	255	8.53333	2.44992E-001	3.68886E-007	0.00000E+000	2.45002E-001	0.00000E+000	9	...........	1467.61
	256	8.56667	2.44004E-001	3.44215E-007	0.00000E+000	2.44003E-001	0.00000E+000	9	...........	1467.61
	257	8.6	2.42989E-001	3.19577E-007	0.00000E+000	2.43003E-001	0.00000E+000	9	...........	1467.61
	258	8.63333	2.41984E-001	3.11521E-007	0.00000E+000	2.42004E-001	0.00000E+000	9	...........	1467.61
	259	8.66667	2.40988E-001	2.78993E-007	0.00000E+000	2.41004E-001	0.00000E+000	9	...........	1467.61
	260	8.7	2.39999E-001	2.54906E-007	0.00000E+000	2.40004E-001	0.00000E+000	9	...........	1467.61
	261	8.73333	2.38989E-001	2.44280E-007	0.00000E+000	2.39005E-001	0.00000E+000	9	...........	1467.61
	262	8.76667	2.37990E-001	2.14539E-007	0.00000E+000	2.38005E-001	0.00000E+000	9	...........	1467.61
	263	8.8	2.36984E-001	1.93254E-007	0.00000E+000	2.37005E-001	0.00000E+000	9	...........	1467.61
	264	8.83333	2.35980E-001	1.82228E-007	0.00000E+000	2.36006E-001	0.00000E+000	9	...........	1467.61
	265	8.86667	2.34982E-001	1.53370E-007	0.00000E+000	2.35006E-001	0.00000E+000	9	...........	1467.61
	266	8.9	2.33986E-001	1.26197E-007	0.00000E+000	2.33994E-001	0.00000E+000	9	...........	1467.61
	267	8.93333	2.32989E-001	1.23829E-007	0.00000E+000	2.32994E-001	0.00000E+000	9	...........	1467.61
	268	8.96667	2.31999E-001	9.67557E-008	0.00000E+000	2.31994E-001	0.00000E+000	9	...........	1467.61
	269	9	2.30996E-001	7.45202E-008	0.00000E+000	2.30995E-001	0.00000E+000	9	...........	1467.61
	270	9.03333	2.29980E-001	6.72141E-008	0.00000E+000	2.29995E-001	0.00000E+000	9	...........	1467.61
	271	9.06667	2.28969E-001	3.54038E-008	0.00000E+000	2.28996E-001	0.00000E+000	9	...........	1467.61
	272	9.1	2.27981E-001	1.09331E-008	0.00000E+000	2.27996E-001	0.00000E+000	9	...........	1467.61
	273	9.13333	2.26967E-001	5.34508E-009	0.00000E+000	2.26996E-001	0.00000E+000	9	...........	1467.61
	274	9.16667	2.25960E-001	-2.13942E-008	0.00000E+000	2.25997E-001	0.00000E+000	9	...........	1467.61
	275	9.2	2.24967E-001	-4.70659E-008	0.00000E+000	2.24997E-001	0.00000E+000	9	...........	1467.61
	276	9.23333	2.23983E-001	-5.40718E-008	0.00000E+000	2.23997E-001	0.00000E+000	9	...........	1467.61
	277	9.26667	2.22979E-001	-8.35968E-008	0.00000E+000	2.22998E-001	0.00000E+000	9	...........	1467.61
	278	9.3	2.21991E-001	-1.08418E-007	0.00000E+000	2.21998E-001	0.00000E+000	9	...........	1467.61
	279	9.33333	2.20994E-001	-1.17576E-007	0.00000E+000	2.20998E-001	0.00000E+000	9	...........	1467.61
	280	9.36667	2.19988E-001	-1.45199E-007	0.00000E+000	2.19999E-001	0.00000E+000	9	...........	1467.61
	281	9.4	2.18993E-001	-1.67284E-007	0.00000E+000	2.18999E-001	0.00000E+000	9	...........	1467.61
	282	9.43333	2.18015E-001	-1.74907E-007	0.00000E+000	2.17999E-001	0.00000E+000	9	...........	1467.61
	283	9.46667	2.16975E-001	-2.02497E-007	0.00000E+000	2.17000E-001	0.00000E+000	9	...........	1467.61
	284	9.5	2.15968E-001	-2.26935E-007	0.00000E+000	2.16000E-001	0.00000E+000	9	...........	1467.61
	285	9.5333	2.14974E-001	-2.35992E-007	0.00000E+000	2.15000E-001	0.00000E+000	9	...........	1467.61
	286	9.5667	2.13970E-001	-2.69437E-007	0.00000E+000	2.14001E-001	0.00000E+000	9	...........	1467.61
	287	9.6	2.12974E-001	-2.96460E-007	0.00000E+000	2.13001E-001	0.00000E+000	9	...........	1467.61
	288	9.6333	2.11991E-001	-3.05735E-007	0.00000E+000	2.12001E-001	0.00000E+000	9	...........	1467.60
	289	9.6667	2.10989E-001	-3.36944E-007	0.00000E+000	2.11002E-001	0.00000E+000	9	...........	1467.52
	290	9.7	2.09991E-001	-3.61982E-007	0.00000E+000	2.10002E-001	0.00000E+000	9	...........	1467.52
	291	9.7333	2.08993E-001	-3.68821E-007	0.00000E+000	2.09003E-001	0.00000E+000	9	...........	1467.52
	292	9.7667	2.07992E-001	-3.95060E-007	0.00000E+000	2.08003E-001	0.00000E+000	9	...........	1467.52
	293	9.8	2.06989E-001	-4.19981E-007	0.00000E+000	2.07003E-001	0.00000E+000	9	...........	1467.52
	294	9.8333	2.05994E-001	-4.29656E-007	0.00000E+000	2.06004E-001	0.00000E+000	9	...........	1467.52
	295	9.8667	2.04998E-001	-4.58447E-007	0.00000E+000	2.05004E-001	0.00000E+000	9	...........	1467.52
	296	9.9	2.03985E-001	-4.79715E-007	0.00000E+000	2.04004E-001	0.00000E+000	9	...........	1467.52
	297	9.9333	2.02989E-001	-4.91292E-007	0.00000E+000	2.03005E-001	0.00000E+000	9	...........	1467.52
	298	9.9667	2.01987E-001	-5.20733E-007	0.00000E+000	2.02005E-001	0.00000E+000	9	...........	1467.52
	299	10	2.00995E-001	-5.45438E-007	0.00000E+000	2.01005E-001	0.00000E+000	9	...........	1467.52
	300	10.0333	2.00003E-001	-5.56780E-007	0.00000E+000	2.00006E-001	0.00000E+000	9	...........	1467.52
	301	10.0667	1.99005E-001	-5.90459E-007	0.00000E+000	1.99006E-001	0.00000E+000	9	...........	1467.52
	302	10.1	1.97988E-001	-6.24287E-007	0.00000E+000	1.97994E-001	0.00000E+000	9	...........	1467.52
	303	10.1333	1.96996E-001	-6.22820E-007	0.00000E+000	1.96994E-001	0.00000E+000	9	...........	1467.52
	304	10.1667	1.96003E-001	-6.52728E-007	0.00000E+000	1.95995E-001	0.00000E+000	9	...........	1467.52
	305	10.2	1.95001E-001	-6.81352E-007	0.00000E+000	1.94995E-001	0.00000E+000	9	...........	1467.52
	306	10.2333	1.94014E-001	-6.90527E-007	0.00000E+000	1.93995E-001	0.00000E+000	9	...........	1467.52
	307	10.2667	1.93016E-001	-7.21019E-007	0.00000E+000	1.92996E-001	0.00000E+000	9	...........	1467.52
	308	10.3	1.92025E-001	-7.47091E-007	0.00000E+000	1.91996E-001	0.00000E+000	9	...........	1467.52
	309	10.3333	1.90989E-001	-7.53430E-007	0.00000E+000	1.90996E-001	0.00000E+000	9	...........	1467.52
	310	10.3667	1.89995E-001	-7.76683E-007	0.00000E+000	1.89997E-001	0.00000E+000	9	...........	1467.52
	311	10.4	1.88999E-001	-8.06542E-007	0.00000E+000	1.88997E-001	0.00000E+000	9	...........	1467.52
	312	10.4333	1.88000E-001	-8.16433E-007	0.00000E+000	1.87997E-001	0.00000E+000	9	...........	1467.52
	313	10.4667	1.86987E-001	-8.47493E-007	0.00000E+000	1.86998E-001	0.00000E+000	9	...........	1467.52
	314	10.5	1.85991E-001	-8.73231E-007	0.00000E+000	1.85998E-001	0.00000E+000	9	...........	1467.52
	315	10.5333	1.84986E-001	-8.82840E-007	0.00000E+000	1.84998E-001	0.00000E+000	9	...........	1467.52
	316	10.5667	1.83992E-001	-9.13432E-007	0.00000E+000	1.83999E-001	0.00000E+000	9	...........	1467.52
	317	10.6	1.82993E-001	-9.37035E-007	0.00000E+000	1.82999E-001	0.00000E+000	9	...........	1467.52
	318	10.6333	1.81999E-001	-9.50463E-007	0.00000E+000	1.81999E-001	0.00000E+000	9	...........	1467.53
	319	10.6667	1.81000E-001	-9.80822E-007	0.00000E+000	1.81000E-001	0.00000E+000	9	...........	1467.61
	320	10.7	1.79992E-001	-1.00408E-006	0.00000E+000	1.80000E-001	0.00000E+000	9	...........	1467.61
	321	10.7333	1.78979E-001	-1.01213E-006	0.00000E+000	1.79000E-001	0.00000E+000	9	...........	1467.61
	322	10.7667	1.77986E-001	-1.04262E-006	0.00000E+000	1.78001E-001	0.00000E+000	9	...........	1467.61
	323	10.8	1.76987E-001	-1.06753E-006	0.00000E+000	1.77001E-001	0.00000E+000	9	...........	1467.61
	324	10.8333	1.75998E-001	-1.08036E-006	0.00000E+000	1.76002E-001	0.00000E+000	9	...........	1467.61
	325	10.8667	1.74992E-001	-1.11087E-006	0.00000E+000	1.75002E-001	0.00000E+000	9	...........	1467.61
	326	10.9	1.73991E-001	-1.13535E-006	0.00000E+000	1.74002E-001	0.00000E+000	9	...........	1467.61
	327	10.9333	1.72999E-001	-1.14503E-006	0.00000E+000	1.73003E-001	0.00000E+000	9	...........	1467.61
	328	10.9667	1.71992E-001	-1.17559E-006	0.00000E+000	1.72003E-001	0.00000E+000	9	...........	1467.61
	329	11	1.70998E-001	-1.19919E-006	0.00000E+000	1.71003E-001	0.00000E+000	9	...........	1467.61
	330	11.0333	1.70003E-001	-1.21305E-006	0.00000E+000	1.70004E-001	0.00000E+000	9	...........	1467.61
	331	11.0667	1.69007E-001	-1.24016E-006	0.00000E+000	1.69004E-001	0.00000E+000	9	...........	1467.61
	332	11.1	1.68010E-001	-1.26588E-006	0.00000E+000	1.68004E-001	0.00000E+000	9	...........	1467.61
	333	11.1333	1.67003E-001	-1.27826E-006	0.00000E+000	1.67005E-001	0.00000E+000	9	...........	1467.61
	334	11.1667	1.65967E-001	-1.30700E-006	0.00000E+000	1.66005E-001	0.00000E+000	9	...........	1467.61
	335	11.2	1.64981E-001	-1.33487E-006	0.00000E+000	1.65005E-001	0.00000E+000	9	...........	1467.61
	336	11.2333	1.63996E-001	-1.34116E-006	0.00000E+000	1.64006E-001	0.00000E+000	9	...........	1467.61
	337	11.2667	1.63001E-001	-1.36603E-006	0.00000E+000	1.63006E-001	0.00000E+000	9	...........	1467.61
	338	11.3	1.61983E-001	-1.40583E-006	0.00000E+000	1.61994E-001	0.00000E+000	9	...........	1467.61
	339	11.3333	1.60984E-001	-1.40745E-006	0.00000E+000	1.60994E-001	0.00000E+000	9	...........	1467.61
	340	11.3667	1.59989E-001	-1.43154E-006	0.00000E+000	1.59995E-001	0.00000E+000	9	...........	1467.61
	341	11.4	1.58977E-001	-1.45776E-006	0.00000E+000	1.58995E-001	0.00000E+000	9	...........	1467.61
	342	11.4333	1.57990E-001	-1.46777E-006	0.00000E+000	1.57995E-001	0.00000E+000	9	...........	1467.61
	343	11.4667	1.56995E-001	-1.50103E-006	0.00000E+000	1.56996E-001	0.00000E+000	9	...........	1467.61
	344	11.5	1.55994E-001	-1.52368E-006	0.00000E+000	1.55996E-001	0.00000E+000	9	...........	1467.61
	345	11.5333	1.54989E-001	-1.53015E-006	0.00000E+000	1.54996E-001	0.00000E+000	9	...........	1467.61
	346	11.5667	1.53981E-001	-1.56360E-006	0.00000E+000	1.53997E-001	0.00000E+000	9	...........	1467.61
	347	11.6	1.52970E-001	-1.58955E-006	0.00000E+000	1.52997E-001	0.00000E+000	9	...........	1467.61
	348	11.6333	1.51977E-001	-1.60003E-006	0.00000E+000	1.51997E-001	0.00000E+000	9	...........	1467.61
	349	11.6667	1.50980E-001	-1.62492E-006	0.00000E+000	1.50998E-001	0.00000E+000	9	...........	1467.61
	350	11.7	1.49989E-001	-1.64827E-006	0.00000E+000	1.49998E-001	0.00000E+000	9	...........	1467.61
	351	11.7333	1.48988E-001	-1.65885E-006	0.00000E+000	1.48998E-001	0.00000E+000	9	...........	1467.61
	352	11.7667	1.47993E-001	-1.68343E-006	0.00000E+000	1.47999E-001	0.00000E+000	9	...........	1467.61
	353	11.8	1.46994E-001	-1.71039E-006	0.00000E+000	1.46999E-001	0.00000E+000	9	...........	1467.61
	354	11.8333	1.45989E-001	-1.72138E-006	0.00000E+000	1.46000E-001	0.00000E+000	9	...........	1467.61
	355	11.8667	1.44994E-001	-1.75031E-006	0.00000E+000	1.45000E-001	0.00000E+000	9	...........	1467.61
	356	11.9	1.43999E-001	-1.77683E-006	0.00000E+000	1.44000E-001	0.00000E+000	9	...........	1467.61
	357	11.9333	1.43002E-001	-1.78977E-006	0.00000E+000	1.43001E-001	0.00000E+000	9	...........	1467.61
	358	11.9667	1.42003E-001	-1.81196E-006	0.00000E+000	1.42001E-001	0.00000E+000	9	...........	1467.61
	359	12	1.41007E-001	-1.83539E-006	0.00000E+000	1.41001E-001	0.00000E+000	9	...........	1467.61
	360	12.0333	1.39988E-001	-1.84445E-006	0.00000E+000	1.40002E-001	0.00000E+000	9	...........	1467.61
	361	12.0667	1.38996E-001	-1.87428E-006	0.00000E+000	1.39002E-001	0.00000E+000	9	...........	1467.61
	362	12.1	1.37996E-001	-1.89666E-006	0.00000E+000	1.38002E-001	0.00000E+000	9	...........	1467.61
	363	12.1333	1.36993E-001	-1.90434E-006	0.00000E+000	1.37003E-001	0.00000E+000	9	...........	1467.61
	364	12.1667	1.35995E-001	-1.93359E-006	0.00000E+000	1.36003E-001	0.00000E+000	9	...........	1467.61
	365	12.2	1.34993E-001	-1.96068E-006	0.00000E+000	1.35003E-001	0.00000E+000	9	...........	1467.61
	366	12.2333	1.33995E-001	-1.96796E-006	0.00000E+000	1.34004E-001	0.00000E+000	9	...........	1467.61
	367	12.2667	1.33007E-001	-1.99712E-006	0.00000E+000	1.33004E-001	0.00000E+000	9	...........	1467.61
	368	12.3	1.32012E-001	-2.02511E-006	0.00000E+000	1.32004E-001	0.00000E+000	9	...........	1467.61
	369	12.3333	1.31011E-001	-2.03049E-006	0.00000E+000	1.31005E-001	0.00000E+000	9	...........	1467.61
	370	12.3667	1.30001E-001	-2.05708E-006	0.00000E+000	1.30005E-001	0.00000E+000	9	...........	1467.61
	371	12.4	1.29002E-001	-2.07875E-006	0.00000E+000	1.29005E-001	0.00000E+000	9	...........	1467.61
	372	12.4333	1.27997E-001	-2.09003E-006	0.00000E+000	1.28006E-001	0.00000E+000	9	...........	1467.61
	373	12.4667	1.26988E-001	-2.11585E-006	0.00000E+000	1.27006E-001	0.00000E+000	9	...........	1467.61
	374	12.5	1.25980E-001	-2.14974E-006	0.00000E+000	1.25994E-001	0.00000E+000	9	...........	1467.61
	375	12.5333	1.24991E-001	-2.15161E-006	0.00000E+000	1.24994E-001	0.00000E+000	9	...........	1467.61
	376	12.5667	1.23985E-001	-2.17950E-006	0.00000E+000	1.23995E-001	0.00000E+000	9	...........	1467.61
	377	12.6	1.22994E-001	-2.20639E-006	0.00000E+000	1.22995E-001	0.00000E+000	9	...........	1467.61
	378	12.6333	1.22000E-001	-2.21326E-006	0.00000E+000	1.21995E-001	0.00000E+000	9	...........	1467.58
	379	12.6667	1.20992E-001	-2.23914E-006	0.00000E+000	1.20996E-001	0.00000E+000	9	...........	1467.43
	380	12.7	1.19999E-001	-2.26474E-006	0.00000E+000	1.19996E-001	0.00000E+000	9	...........	1467.43
[...]
	1005	33.5333	2.95003E-001	1.71282E-006	0.00000E+000	2.94998E-001	0.00000E+000	9	...........	1467.97
	1006	33.5667	2.93973E-001	1.65050E-006	0.00000E+000	2.93998E-001	0.00000E+000	9	...........	1467.97
	1007	33.6	2.92976E-001	1.58398E-006	0.00000E+000	2.92998E-001	0.00000E+000	9	...........	1467.97
	1008	33.6333	2.91989E-001	1.54223E-006	0.00000E+000	2.91999E-001	0.00000E+000	9	...........	1467.89
	1009	33.6667	2.90983E-001	1.49742E-006	0.00000E+000	2.90999E-001	0.00000E+000	9	...........	1467.79
	1010	33.7	2.89999E-001	1.44154E-006	0.00000E+000	2.89999E-001	0.00000E+000	9	...........	1467.79
	1011	33.7333	2.89005E-001	1.40736E-006	0.00000E+000	2.89000E-001	0.00000E+000	9	...........	1467.79
	1012	33.7667	2.88007E-001	1.36815E-006	0.00000E+000	2.88000E-001	0.00000E+000	9	...........	1467.79
	1013	33.8	2.86996E-001	1.31977E-006	0.00000E+000	2.87000E-001	0.00000E+000	9	...........	1467.79
	1014	33.8333	2.85991E-001	1.28836E-006	0.00000E+000	2.86001E-001	0.00000E+000	9	...........	1467.79
	1015	33.8667	2.85000E-001	1.25832E-006	0.00000E+000	2.85001E-001	0.00000E+000	9	...........	1467.79
	1016	33.9	2.84003E-001	1.21041E-006	0.00000E+000	2.84001E-001	0.00000E+000	9	...........	1467.79
	1017	33.9333	2.82993E-001	1.18302E-006	0.00000E+000	2.83002E-001	0.00000E+000	9	...........	1467.79
	1018	33.9667	2.81986E-001	1.15342E-006	0.00000E+000	2.82002E-001	0.00000E+000	9	...........	1467.79
	1019	34	2.80979E-001	1.10856E-006	0.00000E+000	2.81002E-001	0.00000E+000	9	...........	1467.79
	1020	34.0333	2.79976E-001	1.08504E-006	0.00000E+000	2.80003E-001	0.00000E+000	9	...........	1467.79
	1021	34.0667	2.78978E-001	1.05770E-006	0.00000E+000	2.79003E-001	0.00000E+000	9	...........	1467.79
	1022	34.1	2.77991E-001	1.01842E-006	0.00000E+000	2.78003E-001	0.00000E+000	9	...........	1467.79
	1023	34.1333	2.76991E-001	1.00055E-006	0.00000E+000	2.77004E-001	0.00000E+000	9	...........	1467.79
	1024	34.1667	2.75990E-001	9.78485E-007	0.00000E+000	2.76004E-001	0.00000E+000	9	...........	1467.79
	1025	34.2	2.74988E-001	9.39001E-007	0.00000E+000	2.75004E-001	0.00000E+000	9	...........	1467.79
	1026	34.2333	2.73987E-001	9.17350E-007	0.00000E+000	2.74005E-001	0.00000E+000	9	...........	1467.79
	1027	34.2667	2.72998E-001	8.94814E-007	0.00000E+000	2.73005E-001	0.00000E+000	9	...........	1467.79
	1028	34.3	2.71999E-001	8.58984E-007	0.00000E+000	2.72006E-001	0.00000E+000	9	...........	1467.79
	1029	34.3333	2.71009E-001	8.38900E-007	0.00000E+000	2.71006E-001	0.00000E+000	9	...........	1467.79
	1030	34.3667	2.69999E-001	8.06056E-007	0.00000E+000	2.69994E-001	0.00000E+000	9	...........	1467.79
	1031	34.4	2.69005E-001	7.72978E-007	0.00000E+000	2.68994E-001	0.00000E+000	9	...........	1467.79
	1032	34.4333	2.67968E-001	7.60817E-007	0.00000E+000	2.67994E-001	0.00000E+000	9	...........	1467.79
	1033	34.4667	2.66970E-001	7.39399E-007	0.00000E+000	2.66995E-001	0.00000E+000	9	...........	1467.79
	1034	34.5	2.65978E-001	7.01851E-007	0.00000E+000	2.65995E-001	0.00000E+000	9	...........	1467.79
	1035	34.5333	2.64980E-001	6.91525E-007	0.00000E+000	2.64995E-001	0.00000E+000	9	...........	1467.79
	1036	34.5667	2.63971E-001	6.67922E-007	0.00000E+000	2.63996E-001	0.00000E+000	9	...........	1467.79
	1037	34.6	2.62978E-001	6.36829E-007	0.00000E+000	2.62996E-001	0.00000E+000	9	...........	1467.79
	1038	34.6333	2.61972E-001	6.20615E-007	0.00000E+000	2.61997E-001	0.00000E+000	9	...........	1467.66
	1039	34.6667	2.60978E-001	6.00615E-007	0.00000E+000	2.60997E-001	0.00000E+000	9	...........	1467.52
	1040	34.7	2.59981E-001	5.64551E-007	0.00000E+000	2.59997E-001	0.00000E+000	9	...........	1467.52
	1041	34.7333	2.58985E-001	5.51974E-007	0.00000E+000	2.58998E-001	0.00000E+000	9	...........	1467.52
	1042	34.7667	2.57994E-001	5.34443E-007	0.00000E+000	2.57998E-001	0.00000E+000	9	...........	1467.52
	1043	34.8	2.56994E-001	5.04884E-007	0.00000E+000	2.56998E-001	0.00000E+000	9	...........	1467.52
	1044	34.8333	2.55980E-001	4.87770E-007	0.00000E+000	2.55999E-001	0.00000E+000	9	...........	1467.52
	1045	34.8667	2.54963E-001	4.69921E-007	0.00000E+000	2.54999E-001	0.00000E+000	9	...........	1467.52
	1046	34.9	2.53968E-001	4.36209E-007	0.00000E+000	2.53999E-001	0.00000E+000	9	...........	1467.52
	1047	34.9333	2.52978E-001	4.24683E-007	0.00000E+000	2.53000E-001	0.00000E+000	9	...........	1467.52
	1048	34.9667	2.51984E-001	4.06434E-007	0.00000E+000	2.52000E-001	0.00000E+000	9	...........	1467.52
	1049	35	2.50987E-001	3.75708E-007	0.00000E+000	2.51000E-001	0.00000E+000	9	...........	1467.52
	1050	35.0333	2.49990E-001	3.62214E-007	0.00000E+000	2.50001E-001	0.00000E+000	9	...........	1467.52
	1051	35.0667	2.48982E-001	3.48152E-007	0.00000E+000	2.49001E-001	0.00000E+000	9	...........	1467.52
	1052	35.1	2.47985E-001	3.16041E-007	0.00000E+000	2.48001E-001	0.00000E+000	9	...........	1467.52
	1053	35.1333	2.46994E-001	3.06600E-007	0.00000E+000	2.47002E-001	0.00000E+000	9	...........	1467.52
	1054	35.1667	2.45998E-001	2.84481E-007	0.00000E+000	2.46002E-001	0.00000E+000	9	...........	1467.52
	1055	35.2	2.45006E-001	2.52337E-007	0.00000E+000	2.45002E-001	0.00000E+000	9	...........	1467.52
	1056	35.2333	2.44003E-001	2.42396E-007	0.00000E+000	2.44003E-001	0.00000E+000	9	...........	1467.52
	1057	35.2667	2.42996E-001	2.22412E-007	0.00000E+000	2.43003E-001	0.00000E+000	9	...........	1467.52
	1058	35.3	2.41982E-001	1.91803E-007	0.00000E+000	2.42004E-001	0.00000E+000	9	...........	1467.52
	1059	35.3333	2.40980E-001	1.73371E-007	0.00000E+000	2.41004E-001	0.00000E+000	9	...........	1467.52
	1060	35.3667	2.39993E-001	1.58925E-007	0.00000E+000	2.40004E-001	0.00000E+000	9	...........	1467.52
	1061	35.4	2.38989E-001	1.26097E-007	0.00000E+000	2.39005E-001	0.00000E+000	9	...........	1467.52
	1062	35.4333	2.37990E-001	1.15905E-007	0.00000E+000	2.38005E-001	0.00000E+000	9	...........	1467.52
	1063	35.4667	2.36993E-001	9.83904E-008	0.00000E+000	2.37005E-001	0.00000E+000	9	...........	1467.52
	1064	35.5	2.35988E-001	7.00331E-008	0.00000E+000	2.36006E-001	0.00000E+000	9	...........	1467.52
	1065	35.5333	2.34998E-001	5.74058E-008	0.00000E+000	2.35006E-001	0.00000E+000	9	...........	1467.52
	1066	35.5667	2.33995E-001	3.49868E-008	0.00000E+000	2.33994E-001	0.00000E+000	9	...........	1467.52
	1067	35.6	2.32989E-001	5.07819E-009	0.00000E+000	2.32994E-001	0.00000E+000	9	...........	1467.52
	1068	35.6333	2.31992E-001	-5.39733E-009	0.00000E+000	2.31994E-001	0.00000E+000	9	...........	1467.48
	1069	35.6667	2.30997E-001	-2.43300E-008	0.00000E+000	2.30995E-001	0.00000E+000	9	...........	1467.43
	1070	35.7	2.29979E-001	-5.73746E-008	0.00000E+000	2.29995E-001	0.00000E+000	9	...........	1467.43
	1071	35.7333	2.28982E-001	-6.46308E-008	0.00000E+000	2.28996E-001	0.00000E+000	9	...........	1467.43
	1072	35.7667	2.27980E-001	-8.39638E-008	0.00000E+000	2.27996E-001	0.00000E+000	9	...........	1467.43
	1073	35.8	2.26972E-001	-1.15974E-007	0.00000E+000	2.26996E-001	0.00000E+000	9	...........	1467.43
	1074	35.8333	2.25972E-001	-1.29319E-007	0.00000E+000	2.25997E-001	0.00000E+000	9	...........	1467.43
	1075	35.8667	2.24975E-001	-1.46667E-007	0.00000E+000	2.24997E-001	0.00000E+000	9	...........	1467.43
	1076	35.9	2.23987E-001	-1.77810E-007	0.00000E+000	2.23997E-001	0.00000E+000	9	...........	1467.43
	1077	35.9333	2.22983E-001	-1.93907E-007	0.00000E+000	2.22998E-001	0.00000E+000	9	...........	1467.43
	1078	35.9667	2.21986E-001	-2.09053E-007	0.00000E+000	2.21998E-001	0.00000E+000	9	...........	1467.43
	1079	36	2.20997E-001	-2.44033E-007	0.00000E+000	2.20998E-001	0.00000E+000	9	...........	1467.43
	1080	36.0333	2.19999E-001	-2.55909E-007	0.00000E+000	2.19999E-001	0.00000E+000	9	...........	1467.43
	1081	36.0667	2.18992E-001	-2.73474E-007	0.00000E+000	2.18999E-001	0.00000E+000	9	...........	1467.43
	1082	36.1	2.18003E-001	-3.06952E-007	0.00000E+000	2.17999E-001	0.00000E+000	9	...........	1467.43
	1083	36.1333	2.16975E-001	-3.18779E-007	0.00000E+000	2.17000E-001	0.00000E+000	9	...........	1467.43
	1084	36.1667	2.15979E-001	-3.36127E-007	0.00000E+000	2.16000E-001	0.00000E+000	9	...........	1467.43
	1085	36.2	2.14977E-001	-3.67704E-007	0.00000E+000	2.15000E-001	0.00000E+000	9	...........	1467.43
	1086	36.2333	2.13975E-001	-3.77996E-007	0.00000E+000	2.14001E-001	0.00000E+000	9	...........	1467.43
	1087	36.2667	2.12973E-001	-3.95494E-007	0.00000E+000	2.13001E-001	0.00000E+000	9	...........	1467.43
	1088	36.3	2.11983E-001	-4.29906E-007	0.00000E+000	2.12001E-001	0.00000E+000	9	...........	1467.43
	1089	36.3333	2.10979E-001	-4.41650E-007	0.00000E+000	2.11002E-001	0.00000E+000	9	...........	1467.43
	1090	36.3667	2.09991E-001	-4.58164E-007	0.00000E+000	2.10002E-001	0.00000E+000	9	...........	1467.43
	1091	36.4	2.08988E-001	-4.91859E-007	0.00000E+000	2.09003E-001	0.00000E+000	9	...........	1467.43
	1092	36.4333	2.07988E-001	-5.07005E-007	0.00000E+000	2.08003E-001	0.00000E+000	9	...........	1467.43
	1093	36.4667	2.06980E-001	-5.22902E-007	0.00000E+000	2.07003E-001	0.00000E+000	9	...........	1467.43
	1094	36.5	2.06000E-001	-5.54779E-007	0.00000E+000	2.06004E-001	0.00000E+000	9	...........	1467.43
	1095	36.5333	2.05001E-001	-5.71960E-007	0.00000E+000	2.05004E-001	0.00000E+000	9	...........	1467.43
	1096	36.5667	2.03992E-001	-5.87773E-007	0.00000E+000	2.04004E-001	0.00000E+000	9	...........	1467.43
	1097	36.6	2.02991E-001	-6.21218E-007	0.00000E+000	2.03005E-001	0.00000E+000	9	...........	1467.43
	1098	36.6333	2.01988E-001	-6.39200E-007	0.00000E+000	2.02005E-001	0.00000E+000	9	...........	1467.71
	1099	36.6667	2.00983E-001	-6.57265E-007	0.00000E+000	2.01005E-001	0.00000E+000	9	...........	1467.97
	1100	36.7	1.99997E-001	-6.86924E-007	0.00000E+000	2.00006E-001	0.00000E+000	9	...........	1467.97
	1101	36.7333	1.99004E-001	-6.96549E-007	0.00000E+000	1.99006E-001	0.00000E+000	9	...........	1467.97
	1102	36.7667	1.97989E-001	-7.18984E-007	0.00000E+000	1.97994E-001	0.00000E+000	9	...........	1467.97
	1103	36.8	1.96994E-001	-7.51045E-007	0.00000E+000	1.96994E-001	0.00000E+000	9	...........	1467.97
	1104	36.8333	1.95998E-001	-7.62187E-007	0.00000E+000	1.95995E-001	0.00000E+000	9	...........	1467.97
	1105	36.8667	1.94997E-001	-7.78168E-007	0.00000E+000	1.94995E-001	0.00000E+000	9	...........	1467.97
	1106	36.9	1.93998E-001	-8.09628E-007	0.00000E+000	1.93995E-001	0.00000E+000	9	...........	1467.97
	1107	36.9333	1.93003E-001	-8.25057E-007	0.00000E+000	1.92996E-001	0.00000E+000	9	...........	1467.97
	1108	36.9667	1.92007E-001	-8.45291E-007	0.00000E+000	1.91996E-001	0.00000E+000	9	...........	1467.97
	1109	37	1.90980E-001	-8.82539E-007	0.00000E+000	1.90996E-001	0.00000E+000	9	...........	1467.97
	1110	37.0333	1.89979E-001	-8.94816E-007	0.00000E+000	1.89997E-001	0.00000E+000	9	...........	1467.97
	1111	37.0667	1.88986E-001	-9.09178E-007	0.00000E+000	1.88997E-001	0.00000E+000	9	...........	1467.97
	1112	37.1	1.87998E-001	-9.43241E-007	0.00000E+000	1.87997E-001	0.00000E+000	9	...........	1467.97
	1113	37.1333	1.87003E-001	-9.57386E-007	0.00000E+000	1.86998E-001	0.00000E+000	9	...........	1467.97
	1114	37.1667	1.85998E-001	-9.76752E-007	0.00000E+000	1.85998E-001	0.00000E+000	9	...........	1467.97
	1115	37.2	1.85000E-001	-1.01073E-006	0.00000E+000	1.84998E-001	0.00000E+000	9	...........	1467.97
	1116	37.2333	1.83998E-001	-1.02378E-006	0.00000E+000	1.83999E-001	0.00000E+000	9	...........	1467.97
	1117	37.2667	1.83000E-001	-1.04356E-006	0.00000E+000	1.82999E-001	0.00000E+000	9	...........	1467.97
	1118	37.3	1.82003E-001	-1.07936E-006	0.00000E+000	1.81999E-001	0.00000E+000	9	...........	1467.97
	1119	37.3333	1.81005E-001	-1.09846E-006	0.00000E+000	1.81000E-001	0.00000E+000	9	...........	1467.97
	1120	37.3667	1.79987E-001	-1.11740E-006	0.00000E+000	1.80000E-001	0.00000E+000	9	...........	1467.97
	1121	37.4	1.78977E-001	-1.15098E-006	0.00000E+000	1.79000E-001	0.00000E+000	9	...........	1467.97
	1122	37.4333	1.77980E-001	-1.16303E-006	0.00000E+000	1.78001E-001	0.00000E+000	9	...........	1467.97
	1123	37.4667	1.76988E-001	-1.17675E-006	0.00000E+000	1.77001E-001	0.00000E+000	9	...........	1467.97
	1124	37.5	1.76004E-001	-1.21492E-006	0.00000E+000	1.76002E-001	0.00000E+000	9	...........	1467.97
	1125	37.5333	1.74998E-001	-1.22531E-006	0.00000E+000	1.75002E-001	0.00000E+000	9	...........	1467.97
	1126	37.5667	1.73998E-001	-1.24209E-006	0.00000E+000	1.74002E-001	0.00000E+000	9	...........	1467.97
	1127	37.6	1.73003E-001	-1.27372E-006	0.00000E+000	1.73003E-001	0.00000E+000	9	...........	1467.97
	1128	37.6333	1.71995E-001	-1.28745E-006	0.00000E+000	1.72003E-001	0.00000E+000	9	...........	1467.78
	1129	37.6667	1.70990E-001	-1.30765E-006	0.00000E+000	1.71003E-001	0.00000E+000	9	...........	1467.61
	1130	37.7	1.70007E-001	-1.34229E-006	0.00000E+000	1.70004E-001	0.00000E+000	9	...........	1467.61
	1131	37.7333	1.69008E-001	-1.34868E-006	0.00000E+000	1.69004E-001	0.00000E+000	9	...........	1467.61
	1132	37.7667	1.68009E-001	-1.36670E-006	0.00000E+000	1.68004E-001	0.00000E+000	9	...........	1467.61
	1133	37.8	1.67010E-001	-1.39979E-006	0.00000E+000	1.67005E-001	0.00000E+000	9	...........	1467.61
	1134	37.8333	1.65979E-001	-1.40927E-006	0.00000E+000	1.66005E-001	0.00000E+000	9	...........	1467.61
	1135	37.8667	1.64983E-001	-1.42843E-006	0.00000E+000	1.65005E-001	0.00000E+000	9	...........	1467.61
	1136	37.9	1.63992E-001	-1.46049E-006	0.00000E+000	1.64006E-001	0.00000E+000	9	...........	1467.61
	1137	37.9333	1.62983E-001	-1.48223E-006	0.00000E+000	1.63006E-001	0.00000E+000	9	...........	1467.61
	1138	37.9667	1.61972E-001	-1.50770E-006	0.00000E+000	1.61994E-001	0.00000E+000	9	...........	1467.61
	1139	38	1.60984E-001	-1.53544E-006	0.00000E+000	1.60994E-001	0.00000E+000	9	...........	1467.61
	1140	38.0333	1.59985E-001	-1.54890E-006	0.00000E+000	1.59995E-001	0.00000E+000	9	...........	1467.61
	1141	38.0667	1.58980E-001	-1.56467E-006	0.00000E+000	1.58995E-001	0.00000E+000	9	...........	1467.61
	1142	38.1	1.57998E-001	-1.59898E-006	0.00000E+000	1.57995E-001	0.00000E+000	9	...........	1467.61
	1143	38.1333	1.57007E-001	-1.61237E-006	0.00000E+000	1.56996E-001	0.00000E+000	9	...........	1467.61
	1144	38.1667	1.56000E-001	-1.63493E-006	0.00000E+000	1.55996E-001	0.00000E+000	9	...........	1467.61
	1145	38.2	1.55008E-001	-1.66979E-006	0.00000E+000	1.54996E-001	0.00000E+000	9	...........	1467.61
	1146	38.2333	1.53991E-001	-1.67770E-006	0.00000E+000	1.53997E-001	0.00000E+000	9	...........	1467.61
	1147	38.2667	1.52984E-001	-1.69161E-006	0.00000E+000	1.52997E-001	0.00000E+000	9	...........	1467.61
	1148	38.3	1.51985E-001	-1.72554E-006	0.00000E+000	1.51997E-001	0.00000E+000	9	...........	1467.61
	1149	38.3333	1.50980E-001	-1.74270E-006	0.00000E+000	1.50998E-001	0.00000E+000	9	...........	1467.61
	1150	38.3667	1.49988E-001	-1.75788E-006	0.00000E+000	1.49998E-001	0.00000E+000	9	...........	1467.61
	1151	38.4	1.48994E-001	-1.78790E-006	0.00000E+000	1.48998E-001	0.00000E+000	9	...........	1467.61
	1152	38.4333	1.47998E-001	-1.79826E-006	0.00000E+000	1.47999E-001	0.00000E+000	9	...........	1467.61
	1153	38.4667	1.46998E-001	-1.82042E-006	0.00000E+000	1.46999E-001	0.00000E+000	9	...........	1467.61
	1154	38.5	1.45990E-001	-1.85238E-006	0.00000E+000	1.46000E-001	0.00000E+000	9	...........	1467.61
	1155	38.5333	1.44997E-001	-1.86610E-006	0.00000E+000	1.45000E-001	0.00000E+000	9	...........	1467.61
	1156	38.5667	1.44002E-001	-1.88222E-006	0.00000E+000	1.44000E-001	0.00000E+000	9	...........	1467.61
	1157	38.6	1.43014E-001	-1.91628E-006	0.00000E+000	1.43001E-001	0.00000E+000	9	...........	1467.61
	1158	38.6333	1.42019E-001	-1.92912E-006	0.00000E+000	1.42001E-001	0.00000E+000	9	...........	1467.56
	1159	38.6667	1.41025E-001	-1.94444E-006	0.00000E+000	1.41001E-001	0.00000E+000	9	...........	1467.52
	1160	38.7	1.40007E-001	-1.97643E-006	0.00000E+000	1.40002E-001	0.00000E+000	9	...........	1467.52
	1161	38.7333	1.39012E-001	-1.98639E-006	0.00000E+000	1.39002E-001	0.00000E+000	9	...........	1467.52
	1162	38.7667	1.38007E-001	-2.00539E-006	0.00000E+000	1.38002E-001	0.00000E+000	9	...........	1467.52
	1163	38.8	1.36993E-001	-2.03677E-006	0.00000E+000	1.37003E-001	0.00000E+000	9	...........	1467.52
	1164	38.8333	1.35991E-001	-2.05123E-006	0.00000E+000	1.36003E-001	0.00000E+000	9	...........	1467.52
	1165	38.8667	1.34997E-001	-2.06973E-006	0.00000E+000	1.35003E-001	0.00000E+000	9	...........	1467.52
	1166	38.9	1.34003E-001	-2.09980E-006	0.00000E+000	1.34004E-001	0.00000E+000	9	...........	1467.52
	1167	38.9333	1.33003E-001	-2.11989E-006	0.00000E+000	1.33004E-001	0.00000E+000	9	...........	1467.52
	1168	38.9667	1.32010E-001	-2.13470E-006	0.00000E+000	1.32004E-001	0.00000E+000	9	...........	1467.52
	1169	39	1.31016E-001	-2.16653E-006	0.00000E+000	1.31005E-001	0.00000E+000	9	...........	1467.52
	1170	39.0333	1.30011E-001	-2.17627E-006	0.00000E+000	1.30005E-001	0.00000E+000	9	...........	1467.52
	1171	39.0667	1.29011E-001	-2.19375E-006	0.00000E+000	1.29005E-001	0.00000E+000	9	...........	1467.52
	1172	39.1	1.28009E-001	-2.22341E-006	0.00000E+000	1.28006E-001	0.00000E+000	9	...........	1467.52
	1173	39.1333	1.26992E-001	-2.23618E-006	0.00000E+000	1.27006E-001	0.00000E+000	9	...........	1467.52
	1174	39.1667	1.25984E-001	-2.26112E-006	0.00000E+000	1.25994E-001	0.00000E+000	9	...........	1467.52
	1175	39.2	1.24985E-001	-2.28940E-006	0.00000E+000	1.24994E-001	0.00000E+000	9	...........	1467.52
	1176	39.2333	1.23981E-001	-2.30091E-006	0.00000E+000	1.23995E-001	0.00000E+000	9	...........	1467.52
	1177	39.2667	1.22985E-001	-2.31870E-006	0.00000E+000	1.22995E-001	0.00000E+000	9	...........	1467.52
	1178	39.3	1.22000E-001	-2.34970E-006	0.00000E+000	1.21995E-001	0.00000E+000	9	...........	1467.52
	1179	39.3333	1.20997E-001	-2.36321E-006	0.00000E+000	1.20996E-001	0.00000E+000	9	...........	1467.52
	1180	39.3667	1.19999E-001	-2.38219E-006	0.00000E+000	1.19996E-001	0.00000E+000	9	...........	1467.52
	1181	39.4	1.19004E-001	-2.41438E-006	0.00000E+000	1.18996E-001	0.00000E+000	9	...........	1467.52
	1182	39.4333	1.17994E-001	-2.43020E-006	0.00000E+000	1.17997E-001	0.00000E+000	9	...........	1467.52
	1183	39.4667	1.16993E-001	-2.44771E-006	0.00000E+000	1.16997E-001	0.00000E+000	9	...........	1467.52
	1184	39.5	1.16009E-001	-2.47786E-006	0.00000E+000	1.15997E-001	0.00000E+000	9	...........	1467.52
	1185	39.5333	1.14997E-001	-2.49367E-006	0.00000E+000	1.14998E-001	0.00000E+000	9	...........	1467.52
	1186	39.5667	1.13971E-001	-2.51342E-006	0.00000E+000	1.13998E-001	0.00000E+000	9	...........	1467.52
	1187	39.6	1.12979E-001	-2.54600E-006	0.00000E+000	1.12999E-001	0.00000E+000	9	...........	1467.52
	1188	39.6333	1.11988E-001	-2.56153E-006	0.00000E+000	1.11999E-001	0.00000E+000	9	...........	1467.52
	1189	39.6667	1.10992E-001	-2.57912E-006	0.00000E+000	1.10999E-001	0.00000E+000	9	...........	1467.52
	1190	39.7	1.09997E-001	-2.60713E-006	0.00000E+000	1.10000E-001	0.00000E+000	9	...........	1467.52
	1191	39.7333	1.09003E-001	-2.61937E-006	0.00000E+000	1.09000E-001	0.00000E+000	9	...........	1467.52
	1192	39.7667	1.07995E-001	-2.63747E-006	0.00000E+000	1.08000E-001	0.00000E+000	9	...........	1467.52
	1193	39.8	1.06996E-001	-2.66718E-006	0.00000E+000	1.07001E-001	0.00000E+000	9	...........	1467.52
	1194	39.8333	1.05998E-001	-2.68001E-006	0.00000E+000	1.06001E-001	0.00000E+000	9	...........	1467.52
	1195	39.8667	1.05000E-001	-2.70031E-006	0.00000E+000	1.05001E-001	0.00000E+000	9	...........	1467.52
	1196	39.9	1.04010E-001	-2.73467E-006	0.00000E+000	1.04002E-001	0.00000E+000	9	...........	1467.52
	1197	39.9333	1.03015E-001	-2.74556E-006	0.00000E+000	1.03002E-001	0.00000E+000	9	...........	1467.52
	1198	39.9667	1.01993E-001	-2.76285E-006	0.00000E+000	1.02002E-001	0.00000E+000	9	...........	1467.52
	1199	40	1.01000E-001	-2.79589E-006	0.00000E+000	1.01003E-001	0.00000E+000	9	...........	1467.52
	1200	40.0333	1.00003E-001	-2.80852E-006	0.00000E+000	1.00003E-001	0.00000E+000	9	...........	1467.52
CURVE4	TABLE
	Pt	T	Vf	Im	Vu	Sig	Ach	IERange	Over	Temp
	#	s	V vs. Ref.	A	V	V	V	#	bits	deg C
	1201	40.0667	9.99940E-002	-2.29775E-006	0.00000E+000	1.00003E-001	0.00000E+000	9	...........	1467.52