File: input/ECSA_test/CV_ECSA_#2_#4.DTA
EXPLAIN
TAG	CV
TITLE	LABEL	ECSA	Test Identifier
DATE	LABEL	2/13/2024	Date
TIME	LABEL	12:03:54	Time
NOTES	NOTES	1	Notes...

PSTAT	PSTAT	IFC1010-36068	Potentiostat
VINIT	POTEN	1.00000E-001	F	Initial E (V)
VLIMIT1	POTEN	3.00000E-001	F	Scan Limit 1 (V)
VLIMIT2	POTEN	1.00000E-001	F	Scan Limit 2 (V)
VFINAL	POTEN	1.00000E-001	F	Final E (V)
SCANRATE	QUANT	3.99999E+001	A Real Number
STEPSIZE	QUANT	1.00000E+000	Step Size (mV)
CYCLES	IQUANT	3	Cycles (#)
IMODE	SELECTOR	1	I/E Range Mode
IRANGE	QUANT	3.00000E-001	Max Current (mA)
AREA	QUANT	1.00000E+000	Sample Area (cm^2)
EQDELAY	QUANT	0.00000E+000	Equil. Time (s)
IRCOMP	SELECTOR	0	IRComp
PFCOR	QUANT	5.00000E+001	PF Corr. (ohm)
SAMPLINGMODE	SELECTOR	2	Sampling Mode
EOC	QUANT	0.3246219	Open Circuit (V)
ELECTRODETYPE	SELECTOR	0	Electrode Type
STRIPPING	TOGGLE	F	Used for Stripping
SEQUENCER	TOGGLE	TRUE	Run as Sequence
PSTATMODEL	IQUANT	64	Pstat Model
PSTATSECTION	LABEL	IFC1010-36068	Pstat Section
PSTATSERIALNO	LABEL	36068	Pstat Serial Number
CTRLMODE	IQUANT	1	Control Mode
ELECTROMETER	IQUANT	0	RE=0 or CS=1
IESTAB	IQUANT	2	I/E Stability
CASPEED	IQUANT	4	Control Amp Speed
CONVENTION	IQUANT	1	Current Convention
ICHRANGE	IQUANT	2	Ich Range
ICHRANGEMODE	TOGGLE	F	Ich Auto Range
ICHOFFSETENABLE	TOGGLE	F	Ich Offset Enable
ICHOFFSET	QUANT	0	Ich Offset (V)
ICHFILTER	IQUANT	3	Ich Filter
VCHRANGE	IQUANT	2	Vch Range
VCHRANGEMODE	TOGGLE	F	Vch Auto Range
VCHOFFSETENABLE	TOGGLE	F	Vch Offset Enable
VCHOFFSET	QUANT	0	Vch Offset (V)
VCHFILTER	IQUANT	3	Vch Filter
IERANGELOWERLIMIT	IQUANT	4	I/E Range Lower Limit
IERANGEMODE	TOGGLE	F	I/E AutoRange
IERANGE	IQUANT	9	I/E Range
ACHSELECT	IQUANT	0	Ach Select
ACHRANGE	IQUANT	2	Ach Range
ACHOFFSETENABLE	TOGGLE	F	Ach Offset Enable
ACHOFFSET	QUANT	0	Ach Offset (V)
ACHFILTER	IQUANT	1	Ach Filter
SENSECABLEID	IQUANT	13	Sense Cable ID
PWRCABLEID	IQUANT	13	Power Cable ID
DCCALDATE	LABEL	8/11/2023	DC Calibration Date
ACCALDATE	LABEL	6/2/2023	AC Calibration Date
FRAMEWORKVERSION	LABEL	7.10.3	Framework Version
INSTRUMENTVERSION	LABEL	4.91	Instrument Version
COMMVERSION	LABEL	3.10	Communications Version
CPUPLDVERSION	LABEL	2.22	CPU PLD Version
CTRLPLDVERSION	LABEL	0.00	CTRL PLD Version
PSTATPLDVERSION	LABEL	0.00	PSTAT PLD Version
CURVE1	TABLE
	Pt	T	Vf	Im	Vu	Sig	Ach	IERange	Over	Temp
	#	s	V vs. Ref.	A	V	V	V	#	bits	deg C
	0	0.025	9.99889E-002	-2.21776E-006	0.00000E+000	1.00003E-001	0.00000E+000	9	...........	1467.52
	1	0.05	1.00979E-001	-1.50392E-006	0.00000E+000	1.01003E-001	0.00000E+000	9	...........	1467.52
	2	0.075	1.01976E-001	-1.40007E-006	0.00000E+000	1.02002E-001	0.00000E+000	9	...........	1467.52
	3	0.1	1.03001E-001	-1.31390E-006	0.00000E+000	1.03002E-001	0.00000E+000	9	...........	1467.52
	4	0.125	1.04003E-001	-1.22951E-006	0.00000E+000	1.04002E-001	0.00000E+000	9	...........	1467.52
	5	0.15	1.04988E-001	-1.16713E-006	0.00000E+000	1.05001E-001	0.00000E+000	9	...........	1467.52
	6	0.175	1.05988E-001	-1.11555E-006	0.00000E+000	1.06001E-001	0.00000E+000	9	...........	1467.52
	7	0.2	1.06985E-001	-1.05488E-006	0.00000E+000	1.07001E-001	0.00000E+000	9	...........	1467.52
	8	0.225	1.07987E-001	-9.89249E-007	0.00000E+000	1.08000E-001	0.00000E+000	9	...........	1467.52
	9	0.25	1.08991E-001	-9.39501E-007	0.00000E+000	1.09000E-001	0.00000E+000	9	...........	1467.52
	10	0.275	1.09984E-001	-9.04794E-007	0.00000E+000	1.10000E-001	0.00000E+000	9	...........	1467.52
	11	0.3	1.10982E-001	-8.50040E-007	0.00000E+000	1.10999E-001	0.00000E+000	9	...........	1467.52
	12	0.325	1.11975E-001	-7.90904E-007	0.00000E+000	1.11999E-001	0.00000E+000	9	...........	1467.52
	13	0.35	1.12972E-001	-7.49255E-007	0.00000E+000	1.12999E-001	0.00000E+000	9	...........	1467.52
	14	0.375	1.13966E-001	-7.16060E-007	0.00000E+000	1.13998E-001	0.00000E+000	9	...........	1467.52
	15	0.4	1.14976E-001	-6.75946E-007	0.00000E+000	1.14998E-001	0.00000E+000	9	...........	1467.52
	16	0.425	1.15980E-001	-6.22728E-007	0.00000E+000	1.15997E-001	0.00000E+000	9	...........	1467.52
	17	0.45	1.16968E-001	-5.86440E-007	0.00000E+000	1.16997E-001	0.00000E+000	9	...........	1467.52
	18	0.475	1.17969E-001	-5.59631E-007	0.00000E+000	1.17997E-001	0.00000E+000	9	...........	1467.52
	19	0.5	1.18977E-001	-5.16113E-007	0.00000E+000	1.18996E-001	0.00000E+000	9	...........	1467.87
	20	0.525	1.19978E-001	-4.65965E-007	0.00000E+000	1.19996E-001	0.00000E+000	9	...........	1467.88
	21	0.55	1.20975E-001	-4.31502E-007	0.00000E+000	1.20996E-001	0.00000E+000	9	...........	1467.88
	22	0.575	1.21980E-001	-4.03959E-007	0.00000E+000	1.21995E-001	0.00000E+000	9	...........	1467.88
	23	0.6	1.22970E-001	-3.67716E-007	0.00000E+000	1.22995E-001	0.00000E+000	9	...........	1467.88
	24	0.625	1.23966E-001	-3.22173E-007	0.00000E+000	1.23995E-001	0.00000E+000	9	...........	1467.88
	25	0.65	1.24974E-001	-2.87777E-007	0.00000E+000	1.24994E-001	0.00000E+000	9	...........	1467.88
	26	0.675	1.25965E-001	-2.67375E-007	0.00000E+000	1.25994E-001	0.00000E+000	9	...........	1467.88
	27	0.7	1.26977E-001	-2.22077E-007	0.00000E+000	1.27006E-001	0.00000E+000	9	...........	1467.88
	28	0.725	1.27995E-001	-1.83410E-007	0.00000E+000	1.28006E-001	0.00000E+000	9	...........	1467.88
	29	0.75	1.28995E-001	-1.56734E-007	0.00000E+000	1.29005E-001	0.00000E+000	9	...........	1467.88
	30	0.775	1.29993E-001	-1.37333E-007	0.00000E+000	1.30005E-001	0.00000E+000	9	...........	1467.88
	31	0.8	1.31005E-001	-1.03093E-007	0.00000E+000	1.31005E-001	0.00000E+000	9	...........	1467.88
	32	0.825	1.31998E-001	-6.68722E-008	0.00000E+000	1.32004E-001	0.00000E+000	9	...........	1467.88
	33	0.85	1.32985E-001	-3.95733E-008	0.00000E+000	1.33004E-001	0.00000E+000	9	...........	1467.88
	34	0.875	1.33979E-001	-1.75251E-008	0.00000E+000	1.34004E-001	0.00000E+000	9	...........	1467.88
	35	0.9	1.34978E-001	1.26215E-008	0.00000E+000	1.35003E-001	0.00000E+000	9	...........	1467.88
	36	0.925	1.35978E-001	5.36032E-008	0.00000E+000	1.36003E-001	0.00000E+000	9	...........	1467.88
	37	0.95	1.36972E-001	7.51397E-008	0.00000E+000	1.37003E-001	0.00000E+000	9	...........	1467.88
	38	0.975	1.37984E-001	9.68987E-008	0.00000E+000	1.38002E-001	0.00000E+000	9	...........	1467.88
	39	1	1.38978E-001	1.25532E-007	0.00000E+000	1.39002E-001	0.00000E+000	9	...........	1467.88
	40	1.025	1.39974E-001	1.64623E-007	0.00000E+000	1.40002E-001	0.00000E+000	9	...........	1467.88
	41	1.05	1.40994E-001	1.82978E-007	0.00000E+000	1.41001E-001	0.00000E+000	9	...........	1467.88
	42	1.075	1.41996E-001	2.03469E-007	0.00000E+000	1.42001E-001	0.00000E+000	9	...........	1467.88
	43	1.1	1.42994E-001	2.33326E-007	0.00000E+000	1.43001E-001	0.00000E+000	9	...........	1467.88
	44	1.125	1.43987E-001	2.67589E-007	0.00000E+000	1.44000E-001	0.00000E+000	9	...........	1467.88
	45	1.15	1.44981E-001	2.85833E-007	0.00000E+000	1.45000E-001	0.00000E+000	9	...........	1467.88
	46	1.175	1.45982E-001	3.01785E-007	0.00000E+000	1.46000E-001	0.00000E+000	9	...........	1467.88
	47	1.2	1.46987E-001	3.30174E-007	0.00000E+000	1.46999E-001	0.00000E+000	9	...........	1467.88
	48	1.225	1.47992E-001	3.68263E-007	0.00000E+000	1.47999E-001	0.00000E+000	9	...........	1467.88
	49	1.25	1.48979E-001	3.88999E-007	0.00000E+000	1.48998E-001	0.00000E+000	9	...........	1467.88
	50	1.275	1.49978E-001	4.07265E-007	0.00000E+000	1.49998E-001	0.00000E+000	9	...........	1467.88
	51	1.3	1.50972E-001	4.36366E-007	0.00000E+000	1.50998E-001	0.00000E+000	9	...........	1467.88
	52	1.325	1.51970E-001	4.69894E-007	0.00000E+000	1.51997E-001	0.00000E+000	9	...........	1467.88
	53	1.35	1.52967E-001	4.90719E-007	0.00000E+000	1.52997E-001	0.00000E+000	9	...........	1467.88
	54	1.375	1.53973E-001	5.07138E-007	0.00000E+000	1.53997E-001	0.00000E+000	9	...........	1467.88
	55	1.4	1.54978E-001	5.35572E-007	0.00000E+000	1.54996E-001	0.00000E+000	9	...........	1467.88
	56	1.425	1.55983E-001	5.72593E-007	0.00000E+000	1.55996E-001	0.00000E+000	9	...........	1467.88
	57	1.45	1.56994E-001	5.94552E-007	0.00000E+000	1.56996E-001	0.00000E+000	9	...........	1467.88
	58	1.475	1.57982E-001	6.05387E-007	0.00000E+000	1.57995E-001	0.00000E+000	9	...........	1467.88
	59	1.5	1.58963E-001	6.30394E-007	0.00000E+000	1.58995E-001	0.00000E+000	9	...........	1467.44
	60	1.525	1.59971E-001	6.64479E-007	0.00000E+000	1.59995E-001	0.00000E+000	9	...........	1467.43
	61	1.55	1.60965E-001	6.84569E-007	0.00000E+000	1.60994E-001	0.00000E+000	9	...........	1467.43
	62	1.575	1.61960E-001	6.97362E-007	0.00000E+000	1.61994E-001	0.00000E+000	9	...........	1467.43
	63	1.6	1.62972E-001	7.33405E-007	0.00000E+000	1.63006E-001	0.00000E+000	9	...........	1467.43
	64	1.625	1.63979E-001	7.61238E-007	0.00000E+000	1.64006E-001	0.00000E+000	9	...........	1467.43
	65	1.65	1.64964E-001	7.76923E-007	0.00000E+000	1.65005E-001	0.00000E+000	9	...........	1467.43
	66	1.675	1.65964E-001	7.93120E-007	0.00000E+000	1.66005E-001	0.00000E+000	9	...........	1467.43
	67	1.7	1.66993E-001	8.15079E-007	0.00000E+000	1.67005E-001	0.00000E+000	9	...........	1467.43
	68	1.725	1.67999E-001	8.45292E-007	0.00000E+000	1.68004E-001	0.00000E+000	9	...........	1467.43
	69	1.75	1.68990E-001	8.61066E-007	0.00000E+000	1.69004E-001	0.00000E+000	9	...........	1467.43
	70	1.775	1.69991E-001	8.76485E-007	0.00000E+000	1.70004E-001	0.00000E+000	9	...........	1467.43
	71	1.8	1.70979E-001	9.01025E-007	0.00000E+000	1.71003E-001	0.00000E+000	9	...........	1467.43
	72	1.825	1.71980E-001	9.33018E-007	0.00000E+000	1.72003E-001	0.00000E+000	9	...........	1467.43
	73	1.85	1.72988E-001	9.51484E-007	0.00000E+000	1.73003E-001	0.00000E+000	9	...........	1467.43
	74	1.875	1.73986E-001	9.67169E-007	0.00000E+000	1.74002E-001	0.00000E+000	9	...........	1467.43
	75	1.9	1.74976E-001	9.94624E-007	0.00000E+000	1.75002E-001	0.00000E+000	9	...........	1467.43
	76	1.925	1.75978E-001	1.01965E-006	0.00000E+000	1.76002E-001	0.00000E+000	9	...........	1467.43
	77	1.95	1.76965E-001	1.03870E-006	0.00000E+000	1.77001E-001	0.00000E+000	9	...........	1467.43
	78	1.975	1.77966E-001	1.04646E-006	0.00000E+000	1.78001E-001	0.00000E+000	9	...........	1467.43
	79	2	1.78961E-001	1.07254E-006	0.00000E+000	1.79000E-001	0.00000E+000	9	...........	1467.43
	80	2.025	1.79975E-001	1.09872E-006	0.00000E+000	1.80000E-001	0.00000E+000	9	...........	1467.43
	81	2.05	1.80985E-001	1.11330E-006	0.00000E+000	1.81000E-001	0.00000E+000	9	...........	1467.43
	82	2.075	1.81988E-001	1.12925E-006	0.00000E+000	1.81999E-001	0.00000E+000	9	...........	1467.43
	83	2.1	1.82983E-001	1.14756E-006	0.00000E+000	1.82999E-001	0.00000E+000	9	...........	1467.43
	84	2.125	1.83979E-001	1.18371E-006	0.00000E+000	1.83999E-001	0.00000E+000	9	...........	1467.43
	85	2.15	1.84976E-001	1.19539E-006	0.00000E+000	1.84998E-001	0.00000E+000	9	...........	1467.43
	86	2.175	1.85985E-001	1.21132E-006	0.00000E+000	1.85998E-001	0.00000E+000	9	...........	1467.43
	87	2.2	1.86978E-001	1.23575E-006	0.00000E+000	1.86998E-001	0.00000E+000	9	...........	1467.43
	88	2.225	1.87979E-001	1.26534E-006	0.00000E+000	1.87997E-001	0.00000E+000	9	...........	1467.43
	89	2.25	1.88969E-001	1.28296E-006	0.00000E+000	1.88997E-001	0.00000E+000	9	...........	1467.43
	90	2.275	1.89969E-001	1.29353E-006	0.00000E+000	1.89997E-001	0.00000E+000	9	...........	1467.43
	91	2.3	1.90960E-001	1.31549E-006	0.00000E+000	1.90996E-001	0.00000E+000	9	...........	1467.43
	92	2.325	1.91993E-001	1.34057E-006	0.00000E+000	1.91996E-001	0.00000E+000	9	...........	1467.43
	93	2.35	1.92992E-001	1.35563E-006	0.00000E+000	1.92996E-001	0.00000E+000	9	...........	1467.43
	94	2.375	1.93990E-001	1.36944E-006	0.00000E+000	1.93995E-001	0.00000E+000	9	...........	1467.43
	95	2.4	1.94990E-001	1.39203E-006	0.00000E+000	1.94995E-001	0.00000E+000	9	...........	1467.43
	96	2.425	1.95990E-001	1.42533E-006	0.00000E+000	1.95995E-001	0.00000E+000	9	...........	1467.43
	97	2.45	1.96980E-001	1.43866E-006	0.00000E+000	1.96994E-001	0.00000E+000	9	...........	1467.43
	98	2.475	1.97975E-001	1.45256E-006	0.00000E+000	1.97994E-001	0.00000E+000	9	...........	1467.43
	99	2.5	1.98999E-001	1.48309E-006	0.00000E+000	1.99006E-001	0.00000E+000	9	...........	1467.52
	100	2.525	1.99995E-001	1.50098E-006	0.00000E+000	2.00006E-001	0.00000E+000	9	...........	1467.52
	101	2.55	2.00984E-001	1.51446E-006	0.00000E+000	2.01005E-001	0.00000E+000	9	...........	1467.52
	102	2.575	2.01981E-001	1.52403E-006	0.00000E+000	2.02005E-001	0.00000E+000	9	...........	1467.52
	103	2.6	2.02981E-001	1.54736E-006	0.00000E+000	2.03005E-001	0.00000E+000	9	...........	1467.52
	104	2.625	2.03982E-001	1.57322E-006	0.00000E+000	2.04004E-001	0.00000E+000	9	...........	1467.52
	105	2.65	2.04990E-001	1.58964E-006	0.00000E+000	2.05004E-001	0.00000E+000	9	...........	1467.52
	106	2.675	2.05993E-001	1.59758E-006	0.00000E+000	2.06004E-001	0.00000E+000	9	...........	1467.52
	107	2.7	2.06977E-001	1.62154E-006	0.00000E+000	2.07003E-001	0.00000E+000	9	...........	1467.52
	108	2.725	2.07983E-001	1.65195E-006	0.00000E+000	2.08003E-001	0.00000E+000	9	...........	1467.52
	109	2.75	2.08978E-001	1.66246E-006	0.00000E+000	2.09003E-001	0.00000E+000	9	...........	1467.52
	110	2.775	2.09972E-001	1.67120E-006	0.00000E+000	2.10002E-001	0.00000E+000	9	...........	1467.52
	111	2.8	2.10974E-001	1.69173E-006	0.00000E+000	2.11002E-001	0.00000E+000	9	...........	1467.52
	112	2.825	2.11977E-001	1.72052E-006	0.00000E+000	2.12001E-001	0.00000E+000	9	...........	1467.52
	113	2.85	2.12968E-001	1.72962E-006	0.00000E+000	2.13001E-001	0.00000E+000	9	...........	1467.52
	114	2.875	2.13965E-001	1.73810E-006	0.00000E+000	2.14001E-001	0.00000E+000	9	...........	1467.52
	115	2.9	2.14971E-001	1.76313E-006	0.00000E+000	2.15000E-001	0.00000E+000	9	...........	1467.52
	116	2.925	2.15969E-001	1.78484E-006	0.00000E+000	2.16000E-001	0.00000E+000	9	...........	1467.52
	117	2.95	2.16970E-001	1.80073E-006	0.00000E+000	2.17000E-001	0.00000E+000	9	...........	1467.52
	118	2.975	2.17996E-001	1.81134E-006	0.00000E+000	2.17999E-001	0.00000E+000	9	...........	1467.52
	119	3	2.18983E-001	1.83524E-006	0.00000E+000	2.18999E-001	0.00000E+000	9	...........	1467.52
	120	3.025	2.19977E-001	1.86407E-006	0.00000E+000	2.19999E-001	0.00000E+000	9	...........	1467.52
	121	3.05	2.20980E-001	1.87833E-006	0.00000E+000	2.20998E-001	0.00000E+000	9	...........	1467.52
	122	3.075	2.21970E-001	1.88886E-006	0.00000E+000	2.21998E-001	0.00000E+000	9	...........	1467.52
	123	3.1	2.22969E-001	1.91066E-006	0.00000E+000	2.22998E-001	0.00000E+000	9	...........	1467.52
	124	3.125	2.23975E-001	1.93894E-006	0.00000E+000	2.23997E-001	0.00000E+000	9	...........	1467.52
	125	3.15	2.24961E-001	1.94619E-006	0.00000E+000	2.24997E-001	0.00000E+000	9	...........	1467.52
	126	3.175	2.25956E-001	1.96265E-006	0.00000E+000	2.25997E-001	0.00000E+000	9	...........	1467.52
	127	3.2	2.26956E-001	1.98079E-006	0.00000E+000	2.26996E-001	0.00000E+000	9	...........	1467.52
	128	3.225	2.27964E-001	2.00753E-006	0.00000E+000	2.27996E-001	0.00000E+000	9	...........	1467.52
	129	3.25	2.28960E-001	2.02593E-006	0.00000E+000	2.28996E-001	0.00000E+000	9	...........	1467.52
	130	3.275	2.29957E-001	2.03443E-006	0.00000E+000	2.29995E-001	0.00000E+000	9	...........	1467.52
	131	3.3	2.30972E-001	2.05260E-006	0.00000E+000	2.30995E-001	0.00000E+000	9	...........	1467.52
	132	3.325	2.31975E-001	2.08184E-006	0.00000E+000	2.31994E-001	0.00000E+000	9	...........	1467.52
	133	3.35	2.32971E-001	2.09581E-006	0.00000E+000	2.32994E-001	0.00000E+000	9	...........	1467.52
	134	3.375	2.33977E-001	2.10591E-006	0.00000E+000	2.33994E-001	0.00000E+000	9	...........	1467.52
	135	3.4	2.34976E-001	2.13704E-006	0.00000E+000	2.35006E-001	0.00000E+000	9	...........	1467.52
	136	3.425	2.35973E-001	2.15590E-006	0.00000E+000	2.36006E-001	0.00000E+000	9	...........	1467.52
	137	3.45	2.36982E-001	2.17203E-006	0.00000E+000	2.37005E-001	0.00000E+000	9	...........	1467.52
	138	3.475	2.37973E-001	2.17751E-006	0.00000E+000	2.38005E-001	0.00000E+000	9	...........	1467.52
	139	3.5	2.38972E-001	2.20587E-006	0.00000E+000	2.39005E-001	0.00000E+000	9	...........	1467.52
	140	3.525	2.39973E-001	2.23033E-006	0.00000E+000	2.40004E-001	0.00000E+000	9	...........	1467.52
	141	3.55	2.40956E-001	2.24201E-006	0.00000E+000	2.41004E-001	0.00000E+000	9	...........	1467.52
	142	3.575	2.41964E-001	2.25224E-006	0.00000E+000	2.42004E-001	0.00000E+000	9	...........	1467.52
	143	3.6	2.42978E-001	2.27482E-006	0.00000E+000	2.43003E-001	0.00000E+000	9	...........	1467.52
	144	3.625	2.43989E-001	2.30056E-006	0.00000E+000	2.44003E-001	0.00000E+000	9	...........	1467.52
	145	3.65	2.44983E-001	2.31781E-006	0.00000E+000	2.45002E-001	0.00000E+000	9	...........	1467.52
	146	3.675	2.45971E-001	2.32268E-006	0.00000E+000	2.46002E-001	0.00000E+000	9	...........	1467.52
	147	3.7	2.46961E-001	2.34742E-006	0.00000E+000	2.47002E-001	0.00000E+000	9	...........	1467.52
	148	3.725	2.47952E-001	2.37332E-006	0.00000E+000	2.48001E-001	0.00000E+000	9	...........	1467.52
	149	3.75	2.48953E-001	2.38882E-006	0.00000E+000	2.49001E-001	0.00000E+000	9	...........	1467.52
	150	3.775	2.49970E-001	2.40151E-006	0.00000E+000	2.50001E-001	0.00000E+000	9	...........	1467.52
	151	3.8	2.50968E-001	2.42576E-006	0.00000E+000	2.51000E-001	0.00000E+000	9	...........	1467.52
	152	3.825	2.51963E-001	2.44600E-006	0.00000E+000	2.52000E-001	0.00000E+000	9	...........	1467.52
	153	3.85	2.52958E-001	2.46120E-006	0.00000E+000	2.53000E-001	0.00000E+000	9	...........	1467.52
	154	3.875	2.53960E-001	2.46560E-006	0.00000E+000	2.53999E-001	0.00000E+000	9	...........	1467.52
	155	3.9	2.54962E-001	2.49012E-006	0.00000E+000	2.54999E-001	0.00000E+000	9	...........	1467.52
	156	3.925	2.55979E-001	2.51931E-006	0.00000E+000	2.55999E-001	0.00000E+000	9	...........	1467.52
	157	3.95	2.56981E-001	2.53557E-006	0.00000E+000	2.56998E-001	0.00000E+000	9	...........	1467.52
	158	3.975	2.57975E-001	2.54563E-006	0.00000E+000	2.57998E-001	0.00000E+000	9	...........	1467.52
	159	4	2.58972E-001	2.57208E-006	0.00000E+000	2.58998E-001	0.00000E+000	9	...........	1467.52
	160	4.025	2.59969E-001	2.59518E-006	0.00000E+000	2.59997E-001	0.00000E+000	9	...........	1467.52
	161	4.05	2.60969E-001	2.61024E-006	0.00000E+000	2.60997E-001	0.00000E+000	9	...........	1467.52
	162	4.075	2.61968E-001	2.61580E-006	0.00000E+000	2.61997E-001	0.00000E+000	9	...........	1467.52
	163	4.1	2.62972E-001	2.64141E-006	0.00000E+000	2.62996E-001	0.00000E+000	9	...........	1467.52
	164	4.125	2.63964E-001	2.66490E-006	0.00000E+000	2.63996E-001	0.00000E+000	9	...........	1467.52
	165	4.15	2.64966E-001	2.68535E-006	0.00000E+000	2.64995E-001	0.00000E+000	9	...........	1467.52
	166	4.175	2.65956E-001	2.69447E-006	0.00000E+000	2.65995E-001	0.00000E+000	9	...........	1467.52
	167	4.2	2.66946E-001	2.71761E-006	0.00000E+000	2.66995E-001	0.00000E+000	9	...........	1467.52
	168	4.225	2.67947E-001	2.75074E-006	0.00000E+000	2.67994E-001	0.00000E+000	9	...........	1467.52
	169	4.25	2.68979E-001	2.76131E-006	0.00000E+000	2.68994E-001	0.00000E+000	9	...........	1467.52
	170	4.275	2.69977E-001	2.76912E-006	0.00000E+000	2.69994E-001	0.00000E+000	9	...........	1467.52
	171	4.3	2.70989E-001	2.80356E-006	0.00000E+000	2.71006E-001	0.00000E+000	9	...........	1467.52
	172	4.325	2.71984E-001	2.82916E-006	0.00000E+000	2.72006E-001	0.00000E+000	9	...........	1467.52
	173	4.35	2.72979E-001	2.83971E-006	0.00000E+000	2.73005E-001	0.00000E+000	9	...........	1467.52
	174	4.375	2.73972E-001	2.85847E-006	0.00000E+000	2.74005E-001	0.00000E+000	9	...........	1467.52
	175	4.4	2.74971E-001	2.88105E-006	0.00000E+000	2.75004E-001	0.00000E+000	9	...........	1467.52
	176	4.425	2.75982E-001	2.90886E-006	0.00000E+000	2.76004E-001	0.00000E+000	9	...........	1467.52
	177	4.45	2.76983E-001	2.92935E-006	0.00000E+000	2.77004E-001	0.00000E+000	9	...........	1467.52
	178	4.475	2.77980E-001	2.93918E-006	0.00000E+000	2.78003E-001	0.00000E+000	9	...........	1467.52
	179	4.5	2.78964E-001	2.96315E-006	0.00000E+000	2.79003E-001	0.00000E+000	9	...........	1467.52
	180	4.525	2.79962E-001	2.99376E-006	0.00000E+000	2.80003E-001	0.00000E+000	9	...........	1467.52
	181	4.55	2.80964E-001	3.01038E-006	0.00000E+000	2.81002E-001	0.00000E+000	9	...........	1467.52
	182	4.575	2.81971E-001	3.01997E-006	0.00000E+000	2.82002E-001	0.00000E+000	9	...........	1467.52
	183	4.6	2.82978E-001	3.04671E-006	0.00000E+000	2.83002E-001	0.00000E+000	9	...........	1467.52
	184	4.625	2.83986E-001	3.07652E-006	0.00000E+000	2.84001E-001	0.00000E+000	9	...........	1467.52
	185	4.65	2.84981E-001	3.08981E-006	0.00000E+000	2.85001E-001	0.00000E+000	9	...........	1467.52
	186	4.675	2.85977E-001	3.10765E-006	0.00000E+000	2.86001E-001	0.00000E+000	9	...........	1467.52
	187	4.7	2.86967E-001	3.13190E-006	0.00000E+000	2.87000E-001	0.00000E+000	9	...........	1467.52
	188	4.725	2.87979E-001	3.16111E-006	0.00000E+000	2.88000E-001	0.00000E+000	9	...........	1467.52
	189	4.75	2.88978E-001	3.17250E-006	0.00000E+000	2.89000E-001	0.00000E+000	9	...........	1467.52
	190	4.775	2.89977E-001	3.18999E-006	0.00000E+000	2.89999E-001	0.00000E+000	9	...........	1467.52
	191	4.8	2.90962E-001	3.21807E-006	0.00000E+000	2.90999E-001	0.00000E+000	9	...........	1467.52
	192	4.825	2.91965E-001	3.24470E-006	0.00000E+000	2.91999E-001	0.00000E+000	9	...........	1467.52
	193	4.85	2.92965E-001	3.26655E-006	0.00000E+000	2.92998E-001	0.00000E+000	9	...........	1467.52
	194	4.875	2.93958E-001	3.28096E-006	0.00000E+000	2.93998E-001	0.00000E+000	9	...........	1467.52
	195	4.9	2.94986E-001	3.30953E-006	0.00000E+000	2.94998E-001	0.00000E+000	9	...........	1467.52
	196	4.925	2.95984E-001	3.33894E-006	0.00000E+000	2.95997E-001	0.00000E+000	9	...........	1467.52
	197	4.95	2.96969E-001	3.36226E-006	0.00000E+000	2.96997E-001	0.00000E+000	9	...........	1467.52
	198	4.975	2.97970E-001	3.37261E-006	0.00000E+000	2.97996E-001	0.00000E+000	9	...........	1467.52
	199	5	2.98967E-001	3.40122E-006	0.00000E+000	2.98996E-001	0.00000E+000	9	...........	1467.52
	200	5.025	2.99970E-001	3.43697E-006	0.00000E+000	2.99996E-001	0.00000E+000	9	...........	1467.52
	201	5.05	2.98991E-001	2.08627E-006	0.00000E+000	2.98996E-001	0.00000E+000	9	...........	1467.52
	202	5.075	2.97991E-001	1.92775E-006	0.00000E+000	2.97996E-001	0.00000E+000	9	...........	1467.52
	203	5.1	2.96987E-001	1.81417E-006	0.00000E+000	2.96997E-001	0.00000E+000	9	...........	1467.52
	204	5.125	2.96001E-001	1.73220E-006	0.00000E+000	2.95997E-001	0.00000E+000	9	...........	1467.52
	205	5.15	2.95004E-001	1.65002E-006	0.00000E+000	2.94998E-001	0.00000E+000	9	...........	1467.52
	206	5.175	2.93974E-001	1.56630E-006	0.00000E+000	2.93998E-001	0.00000E+000	9	...........	1467.52
	207	5.2	2.92981E-001	1.50816E-006	0.00000E+000	2.92998E-001	0.00000E+000	9	...........	1467.52
	208	5.225	2.91983E-001	1.45621E-006	0.00000E+000	2.91999E-001	0.00000E+000	9	...........	1467.52
	209	5.25	2.90979E-001	1.39507E-006	0.00000E+000	2.90999E-001	0.00000E+000	9	...........	1467.52
	210	5.275	2.89990E-001	1.33747E-006	0.00000E+000	2.89999E-001	0.00000E+000	9	...........	1467.52
	211	5.3	2.88998E-001	1.29260E-006	0.00000E+000	2.89000E-001	0.00000E+000	9	...........	1467.52
	212	5.325	2.87997E-001	1.25936E-006	0.00000E+000	2.88000E-001	0.00000E+000	9	...........	1467.52
	213	5.35	2.86987E-001	1.21259E-006	0.00000E+000	2.87000E-001	0.00000E+000	9	...........	1467.52
	214	5.375	2.85988E-001	1.16091E-006	0.00000E+000	2.86001E-001	0.00000E+000	9	...........	1467.52
	215	5.4	2.84995E-001	1.12033E-006	0.00000E+000	2.85001E-001	0.00000E+000	9	...........	1467.52
	216	5.425	2.84002E-001	1.09089E-006	0.00000E+000	2.84001E-001	0.00000E+000	9	...........	1467.52
	217	5.45	2.82991E-001	1.05147E-006	0.00000E+000	2.83002E-001	0.00000E+000	9	...........	1467.52
	218	5.475	2.81994E-001	1.00568E-006	0.00000E+000	2.82002E-001	0.00000E+000	9	...........	1467.52
	219	5.5	2.80990E-001	9.77226E-007	0.00000E+000	2.81002E-001	0.00000E+000	9	...........	1467.52
	220	5.525	2.79990E-001	9.50194E-007	0.00000E+000	2.80003E-001	0.00000E+000	9	...........	1467.52
	221	5.55	2.78994E-001	9.10436E-007	0.00000E+000	2.79003E-001	0.00000E+000	9	...........	1467.52
	222	5.575	2.77998E-001	8.66250E-007	0.00000E+000	2.78003E-001	0.00000E+000	9	...........	1467.52
	223	5.6	2.77002E-001	8.38774E-007	0.00000E+000	2.77004E-001	0.00000E+000	9	...........	1467.52
	224	5.625	2.76001E-001	8.20663E-007	0.00000E+000	2.76004E-001	0.00000E+000	9	...........	1467.52
	225	5.65	2.74991E-001	7.84064E-007	0.00000E+000	2.75004E-001	0.00000E+000	9	...........	1467.52
	226	5.675	2.73990E-001	7.43750E-007	0.00000E+000	2.74005E-001	0.00000E+000	9	...........	1467.52
	227	5.7	2.72995E-001	7.16919E-007	0.00000E+000	2.73005E-001	0.00000E+000	9	...........	1467.52
	228	5.725	2.71997E-001	7.00499E-007	0.00000E+000	2.72006E-001	0.00000E+000	9	...........	1467.52
	229	5.75	2.71008E-001	6.67082E-007	0.00000E+000	2.71006E-001	0.00000E+000	9	...........	1467.52
	230	5.775	2.69998E-001	6.19137E-007	0.00000E+000	2.69994E-001	0.00000E+000	9	...........	1467.52
	231	5.8	2.69003E-001	6.06833E-007	0.00000E+000	2.68994E-001	0.00000E+000	9	...........	1467.52
	232	5.825	2.67964E-001	5.83472E-007	0.00000E+000	2.67994E-001	0.00000E+000	9	...........	1467.52
	233	5.85	2.66972E-001	5.53949E-007	0.00000E+000	2.66995E-001	0.00000E+000	9	...........	1467.52
	234	5.875	2.65982E-001	5.20265E-007	0.00000E+000	2.65995E-001	0.00000E+000	9	...........	1467.52
	235	5.9	2.64970E-001	4.95813E-007	0.00000E+000	2.64995E-001	0.00000E+000	9	...........	1467.52
	236	5.925	2.63975E-001	4.82175E-007	0.00000E+000	2.63996E-001	0.00000E+000	9	...........	1467.52
	237	5.95	2.62979E-001	4.58570E-007	0.00000E+000	2.62996E-001	0.00000E+000	9	...........	1467.52
	238	5.975	2.61973E-001	4.18812E-007	0.00000E+000	2.61997E-001	0.00000E+000	9	...........	1467.52
	239	6	2.60977E-001	3.98610E-007	0.00000E+000	2.60997E-001	0.00000E+000	9	...........	1467.52
	240	6.025	2.59984E-001	3.85684E-007	0.00000E+000	2.59997E-001	0.00000E+000	9	...........	1467.52
	241	6.05	2.58986E-001	3.53668E-007	0.00000E+000	2.58998E-001	0.00000E+000	9	...........	1467.52
	242	6.075	2.57989E-001	3.23811E-007	0.00000E+000	2.57998E-001	0.00000E+000	9	...........	1467.52
	243	6.1	2.56992E-001	3.00695E-007	0.00000E+000	2.56998E-001	0.00000E+000	9	...........	1467.52
	244	6.125	2.55983E-001	2.86211E-007	0.00000E+000	2.55999E-001	0.00000E+000	9	...........	1467.52
	245	6.15	2.54968E-001	2.63985E-007	0.00000E+000	2.54999E-001	0.00000E+000	9	...........	1467.52
	246	6.175	2.53970E-001	2.29544E-007	0.00000E+000	2.53999E-001	0.00000E+000	9	...........	1467.52
	247	6.2	2.52977E-001	2.14838E-007	0.00000E+000	2.53000E-001	0.00000E+000	9	...........	1467.52
	248	6.225	2.51983E-001	2.00243E-007	0.00000E+000	2.52000E-001	0.00000E+000	9	...........	1467.52
	249	6.25	2.50987E-001	1.77238E-007	0.00000E+000	2.51000E-001	0.00000E+000	9	...........	1467.52
	250	6.275	2.49993E-001	1.41640E-007	0.00000E+000	2.50001E-001	0.00000E+000	9	...........	1467.52
	251	6.3	2.48986E-001	1.22907E-007	0.00000E+000	2.49001E-001	0.00000E+000	9	...........	1467.52
	252	6.325	2.47992E-001	1.05820E-007	0.00000E+000	2.48001E-001	0.00000E+000	9	...........	1467.52
	253	6.35	2.46993E-001	8.54852E-008	0.00000E+000	2.47002E-001	0.00000E+000	9	...........	1467.52
	254	6.375	2.45999E-001	5.42929E-008	0.00000E+000	2.46002E-001	0.00000E+000	9	...........	1467.52
	255	6.4	2.45008E-001	3.66499E-008	0.00000E+000	2.45002E-001	0.00000E+000	9	...........	1467.52
	256	6.425	2.44009E-001	2.45690E-008	0.00000E+000	2.44003E-001	0.00000E+000	9	...........	1467.52
	257	6.45	2.42994E-001	-5.62218E-009	0.00000E+000	2.43003E-001	0.00000E+000	9	...........	1467.52
	258	6.475	2.41987E-001	-3.83052E-008	0.00000E+000	2.42004E-001	0.00000E+000	9	...........	1467.51
	259	6.5	2.40984E-001	-5.15430E-008	0.00000E+000	2.41004E-001	0.00000E+000	9	...........	1467.43
	260	6.525	2.39999E-001	-6.31567E-008	0.00000E+000	2.40004E-001	0.00000E+000	9	...........	1467.43
	261	6.55	2.38993E-001	-8.46265E-008	0.00000E+000	2.39005E-001	0.00000E+000	9	...........	1467.43
	262	6.575	2.37994E-001	-1.17176E-007	0.00000E+000	2.38005E-001	0.00000E+000	9	...........	1467.43
	263	6.6	2.36999E-001	-1.31971E-007	0.00000E+000	2.37005E-001	0.00000E+000	9	...........	1467.43
	264	6.625	2.35997E-001	-1.45298E-007	0.00000E+000	2.36006E-001	0.00000E+000	9	...........	1467.43
	265	6.65	2.34998E-001	-1.65744E-007	0.00000E+000	2.35006E-001	0.00000E+000	9	...........	1467.43
	266	6.675	2.33997E-001	-2.13579E-007	0.00000E+000	2.33994E-001	0.00000E+000	9	...........	1467.43
	267	6.7	2.32996E-001	-2.25214E-007	0.00000E+000	2.32994E-001	0.00000E+000	9	...........	1467.43
	268	6.725	2.31999E-001	-2.32156E-007	0.00000E+000	2.31994E-001	0.00000E+000	9	...........	1467.43
	269	6.75	2.30994E-001	-2.57052E-007	0.00000E+000	2.30995E-001	0.00000E+000	9	...........	1467.43
	270	6.775	2.29984E-001	-2.87644E-007	0.00000E+000	2.29995E-001	0.00000E+000	9	...........	1467.43
	271	6.8	2.28983E-001	-3.02394E-007	0.00000E+000	2.28996E-001	0.00000E+000	9	...........	1467.43
	272	6.825	2.27980E-001	-3.18146E-007	0.00000E+000	2.27996E-001	0.00000E+000	9	...........	1467.43
	273	6.85	2.26975E-001	-3.40462E-007	0.00000E+000	2.26996E-001	0.00000E+000	9	...........	1467.43
	274	6.875	2.25980E-001	-3.67048E-007	0.00000E+000	2.25997E-001	0.00000E+000	9	...........	1467.43
	275	6.9	2.24981E-001	-3.85047E-007	0.00000E+000	2.24997E-001	0.00000E+000	9	...........	1467.43
	276	6.925	2.23997E-001	-4.01600E-007	0.00000E+000	2.23997E-001	0.00000E+000	9	...........	1467.43
	277	6.95	2.22986E-001	-4.23760E-007	0.00000E+000	2.22998E-001	0.00000E+000	9	...........	1467.43
	278	6.975	2.21987E-001	-4.55664E-007	0.00000E+000	2.21998E-001	0.00000E+000	9	...........	1467.43
	279	7	2.20992E-001	-4.73797E-007	0.00000E+000	2.20998E-001	0.00000E+000	9	...........	1467.43
	280	7.025	2.19991E-001	-4.89148E-007	0.00000E+000	2.19999E-001	0.00000E+000	9	...........	1467.43
	281	7.05	2.18991E-001	-5.11152E-007	0.00000E+000	2.18999E-001	0.00000E+000	9	...........	1467.43
	282	7.075	2.18007E-001	-5.41699E-007	0.00000E+000	2.17999E-001	0.00000E+000	9	...........	1467.43
	283	7.1	2.16972E-001	-5.59609E-007	0.00000E+000	2.17000E-001	0.00000E+000	9	...........	1467.43
	284	7.125	2.15979E-001	-5.74715E-007	0.00000E+000	2.16000E-001	0.00000E+000	9	...........	1467.43
	285	7.15	2.14977E-001	-5.98165E-007	0.00000E+000	2.15000E-001	0.00000E+000	9	...........	1467.43
	286	7.175	2.13970E-001	-6.31471E-007	0.00000E+000	2.14001E-001	0.00000E+000	9	...........	1467.43
	287	7.2	2.12981E-001	-6.49826E-007	0.00000E+000	2.13001E-001	0.00000E+000	9	...........	1467.43
	288	7.225	2.11996E-001	-6.61017E-007	0.00000E+000	2.12001E-001	0.00000E+000	9	...........	1467.43
	289	7.25	2.10993E-001	-6.86314E-007	0.00000E+000	2.11002E-001	0.00000E+000	9	...........	1467.43
	290	7.275	2.09988E-001	-7.24804E-007	0.00000E+000	2.10002E-001	0.00000E+000	9	...........	1467.43
	291	7.3	2.08986E-001	-7.43492E-007	0.00000E+000	2.09003E-001	0.00000E+000	9	...........	1467.43
	292	7.325	2.07984E-001	-7.51168E-007	0.00000E+000	2.08003E-001	0.00000E+000	9	...........	1467.43
	293	7.35	2.06974E-001	-7.76220E-007	0.00000E+000	2.07003E-001	0.00000E+000	9	...........	1467.43
	294	7.375	2.05993E-001	-8.05365E-007	0.00000E+000	2.06004E-001	0.00000E+000	9	...........	1467.43
	295	7.4	2.05003E-001	-8.21362E-007	0.00000E+000	2.05004E-001	0.00000E+000	9	...........	1467.43
	296	7.425	2.03993E-001	-8.37581E-007	0.00000E+000	2.04004E-001	0.00000E+000	9	...........	1467.43
	297	7.45	2.02999E-001	-8.64568E-007	0.00000E+000	2.03005E-001	0.00000E+000	9	...........	1467.43
	298	7.475	2.02008E-001	-8.97852E-007	0.00000E+000	2.02005E-001	0.00000E+000	9	...........	1467.46
	299	7.5	2.00993E-001	-9.13604E-007	0.00000E+000	2.01005E-001	0.00000E+000	9	...........	1467.61
	300	7.525	2.00010E-001	-9.23905E-007	0.00000E+000	2.00006E-001	0.00000E+000	9	...........	1467.61
	301	7.55	1.99015E-001	-9.40836E-007	0.00000E+000	1.99006E-001	0.00000E+000	9	...........	1467.61
	302	7.575	1.97993E-001	-9.80461E-007	0.00000E+000	1.97994E-001	0.00000E+000	9	...........	1467.61
	303	7.6	1.96995E-001	-9.94077E-007	0.00000E+000	1.96994E-001	0.00000E+000	9	...........	1467.61
	304	7.625	1.96007E-001	-1.01352E-006	0.00000E+000	1.95995E-001	0.00000E+000	9	...........	1467.61
	305	7.65	1.95007E-001	-1.03766E-006	0.00000E+000	1.94995E-001	0.00000E+000	9	...........	1467.61
	306	7.675	1.94001E-001	-1.07039E-006	0.00000E+000	1.93995E-001	0.00000E+000	9	...........	1467.61
	307	7.7	1.93008E-001	-1.08360E-006	0.00000E+000	1.92996E-001	0.00000E+000	9	...........	1467.61
	308	7.725	1.92016E-001	-1.10296E-006	0.00000E+000	1.91996E-001	0.00000E+000	9	...........	1467.61
	309	7.75	1.90983E-001	-1.12743E-006	0.00000E+000	1.90996E-001	0.00000E+000	9	...........	1467.61
	310	7.775	1.89979E-001	-1.16214E-006	0.00000E+000	1.89997E-001	0.00000E+000	9	...........	1467.61
	311	7.8	1.88981E-001	-1.18119E-006	0.00000E+000	1.88997E-001	0.00000E+000	9	...........	1467.61
	312	7.825	1.87993E-001	-1.19576E-006	0.00000E+000	1.87997E-001	0.00000E+000	9	...........	1467.61
	313	7.85	1.86998E-001	-1.22123E-006	0.00000E+000	1.86998E-001	0.00000E+000	9	...........	1467.61
	314	7.875	1.85998E-001	-1.25002E-006	0.00000E+000	1.85998E-001	0.00000E+000	9	...........	1467.61
	315	7.9	1.84997E-001	-1.26980E-006	0.00000E+000	1.84998E-001	0.00000E+000	9	...........	1467.61
	316	7.925	1.83999E-001	-1.28560E-006	0.00000E+000	1.83999E-001	0.00000E+000	9	...........	1467.61
	317	7.95	1.83001E-001	-1.30705E-006	0.00000E+000	1.82999E-001	0.00000E+000	9	...........	1467.61
	318	7.975	1.82008E-001	-1.34422E-006	0.00000E+000	1.81999E-001	0.00000E+000	9	...........	1467.61
	319	8	1.81011E-001	-1.35726E-006	0.00000E+000	1.81000E-001	0.00000E+000	9	...........	1467.61
	320	8.025	1.80002E-001	-1.37212E-006	0.00000E+000	1.80000E-001	0.00000E+000	9	...........	1467.61
	321	8.05	1.78988E-001	-1.39793E-006	0.00000E+000	1.79000E-001	0.00000E+000	9	...........	1467.61
	322	8.075	1.77992E-001	-1.43335E-006	0.00000E+000	1.78001E-001	0.00000E+000	9	...........	1467.61
	323	8.1	1.76997E-001	-1.44935E-006	0.00000E+000	1.77001E-001	0.00000E+000	9	...........	1467.61
	324	8.125	1.76008E-001	-1.46152E-006	0.00000E+000	1.76002E-001	0.00000E+000	9	...........	1467.61
	325	8.15	1.75001E-001	-1.49017E-006	0.00000E+000	1.75002E-001	0.00000E+000	9	...........	1467.61
	326	8.175	1.73999E-001	-1.52415E-006	0.00000E+000	1.74002E-001	0.00000E+000	9	...........	1467.61
	327	8.2	1.72991E-001	-1.53901E-006	0.00000E+000	1.73003E-001	0.00000E+000	9	...........	1467.61
	328	8.225	1.71985E-001	-1.55681E-006	0.00000E+000	1.72003E-001	0.00000E+000	9	...........	1467.61
	329	8.25	1.70995E-001	-1.58041E-006	0.00000E+000	1.71003E-001	0.00000E+000	9	...........	1467.61
	330	8.275	1.70007E-001	-1.61583E-006	0.00000E+000	1.70004E-001	0.00000E+000	9	...........	1467.61
	331	8.3	1.69002E-001	-1.63347E-006	0.00000E+000	1.69004E-001	0.00000E+000	9	...........	1467.61
	332	8.325	1.68007E-001	-1.65018E-006	0.00000E+000	1.68004E-001	0.00000E+000	9	...........	1467.61
	333	8.35	1.67012E-001	-1.67557E-006	0.00000E+000	1.67005E-001	0.00000E+000	9	...........	1467.61
	334	8.375	1.65981E-001	-1.70678E-006	0.00000E+000	1.66005E-001	0.00000E+000	9	...........	1467.61
	335	8.4	1.64983E-001	-1.72612E-006	0.00000E+000	1.65005E-001	0.00000E+000	9	...........	1467.61
	336	8.425	1.63999E-001	-1.74105E-006	0.00000E+000	1.64006E-001	0.00000E+000	9	...........	1467.61
	337	8.45	1.62993E-001	-1.77039E-006	0.00000E+000	1.63006E-001	0.00000E+000	9	...........	1467.61
	338	8.475	1.61978E-001	-1.81295E-006	0.00000E+000	1.61994E-001	0.00000E+000	9	...........	1467.63
	339	8.5	1.60985E-001	-1.82152E-006	0.00000E+000	1.60994E-001	0.00000E+000	9	...........	1467.70
	340	8.525	1.59989E-001	-1.83298E-006	0.00000E+000	1.59995E-001	0.00000E+000	9	...........	1467.70
	341	8.55	1.58982E-001	-1.86157E-006	0.00000E+000	1.58995E-001	0.00000E+000	9	...........	1467.70
	342	8.575	1.58000E-001	-1.89487E-006	0.00000E+000	1.57995E-001	0.00000E+000	9	...........	1467.70
	343	8.6	1.57009E-001	-1.91274E-006	0.00000E+000	1.56996E-001	0.00000E+000	9	...........	1467.70
	344	8.625	1.56002E-001	-1.92620E-006	0.00000E+000	1.55996E-001	0.00000E+000	9	...........	1467.70
	345	8.65	1.55002E-001	-1.95047E-006	0.00000E+000	1.54996E-001	0.00000E+000	9	...........	1467.70
	346	8.675	1.53988E-001	-1.98066E-006	0.00000E+000	1.53997E-001	0.00000E+000	9	...........	1467.70
	347	8.7	1.52980E-001	-2.00158E-006	0.00000E+000	1.52997E-001	0.00000E+000	9	...........	1467.70
	348	8.725	1.51987E-001	-2.01900E-006	0.00000E+000	1.51997E-001	0.00000E+000	9	...........	1467.70
	349	8.75	1.50988E-001	-2.04541E-006	0.00000E+000	1.50998E-001	0.00000E+000	9	...........	1467.70
	350	8.775	1.49991E-001	-2.07611E-006	0.00000E+000	1.49998E-001	0.00000E+000	9	...........	1467.70
	351	8.8	1.48989E-001	-2.09473E-006	0.00000E+000	1.48998E-001	0.00000E+000	9	...........	1467.70
	352	8.825	1.48001E-001	-2.10752E-006	0.00000E+000	1.47999E-001	0.00000E+000	9	...........	1467.70
	353	8.85	1.47002E-001	-2.13355E-006	0.00000E+000	1.46999E-001	0.00000E+000	9	...........	1467.70
	354	8.875	1.45999E-001	-2.16339E-006	0.00000E+000	1.46000E-001	0.00000E+000	9	...........	1467.70
	355	8.9	1.44996E-001	-2.18219E-006	0.00000E+000	1.45000E-001	0.00000E+000	9	...........	1467.70
	356	8.925	1.43992E-001	-2.19681E-006	0.00000E+000	1.44000E-001	0.00000E+000	9	...........	1467.70
	357	8.95	1.42994E-001	-2.22057E-006	0.00000E+000	1.43001E-001	0.00000E+000	9	...........	1467.70
	358	8.975	1.42003E-001	-2.25229E-006	0.00000E+000	1.42001E-001	0.00000E+000	9	...........	1467.70
	359	9	1.41005E-001	-2.26684E-006	0.00000E+000	1.41001E-001	0.00000E+000	9	...........	1467.70
	360	9.025	1.39984E-001	-2.28442E-006	0.00000E+000	1.40002E-001	0.00000E+000	9	...........	1467.70
	361	9.05	1.38991E-001	-2.30998E-006	0.00000E+000	1.39002E-001	0.00000E+000	9	...........	1467.70
	362	9.075	1.37999E-001	-2.33913E-006	0.00000E+000	1.38002E-001	0.00000E+000	9	...........	1467.70
	363	9.1	1.37001E-001	-2.35909E-006	0.00000E+000	1.37003E-001	0.00000E+000	9	...........	1467.70
	364	9.125	1.36010E-001	-2.37477E-006	0.00000E+000	1.36003E-001	0.00000E+000	9	...........	1467.70
	365	9.15	1.35009E-001	-2.40091E-006	0.00000E+000	1.35003E-001	0.00000E+000	9	...........	1467.70
	366	9.175	1.34012E-001	-2.43166E-006	0.00000E+000	1.34004E-001	0.00000E+000	9	...........	1467.70
	367	9.2	1.33016E-001	-2.45302E-006	0.00000E+000	1.33004E-001	0.00000E+000	9	...........	1467.70
	368	9.225	1.32022E-001	-2.46750E-006	0.00000E+000	1.32004E-001	0.00000E+000	9	...........	1467.70
	369	9.25	1.31016E-001	-2.49166E-006	0.00000E+000	1.31005E-001	0.00000E+000	9	...........	1467.70
	370	9.275	1.30007E-001	-2.52586E-006	0.00000E+000	1.30005E-001	0.00000E+000	9	...........	1467.70
	371	9.3	1.29002E-001	-2.54221E-006	0.00000E+000	1.29005E-001	0.00000E+000	9	...........	1467.70
	372	9.325	1.28004E-001	-2.55565E-006	0.00000E+000	1.28006E-001	0.00000E+000	9	...........	1467.70
	373	9.35	1.26996E-001	-2.57748E-006	0.00000E+000	1.27006E-001	0.00000E+000	9	...........	1467.70
	374	9.375	1.25978E-001	-2.61848E-006	0.00000E+000	1.25994E-001	0.00000E+000	9	...........	1467.70
	375	9.4	1.24993E-001	-2.63185E-006	0.00000E+000	1.24994E-001	0.00000E+000	9	...........	1467.70
	376	9.425	1.23996E-001	-2.64024E-006	0.00000E+000	1.23995E-001	0.00000E+000	9	...........	1467.70
	377	9.45	1.22995E-001	-2.66696E-006	0.00000E+000	1.22995E-001	0.00000E+000	9	...........	1467.70
	378	9.475	1.21999E-001	-2.70125E-006	0.00000E+000	1.21995E-001	0.00000E+000	9	...........	1467.67
	379	9.5	1.20996E-001	-2.71851E-006	0.00000E+000	1.20996E-001	0.00000E+000	9	...........	1467.52
	380	9.525	1.20001E-001	-2.73477E-006	0.00000E+000	1.19996E-001	0.00000E+000	9	...........	1467.52
	381	9.55	1.19004E-001	-2.76403E-006	0.00000E+000	1.18996E-001	0.00000E+000	9	...........	1467.52
	382	9.575	1.17994E-001	-2.79480E-006	0.00000E+000	1.17997E-001	0.00000E+000	9	...........	1467.52
	383	9.6	1.17000E-001	-2.81260E-006	0.00000E+000	1.16997E-001	0.00000E+000	9	...........	1467.52
	384	9.625	1.16014E-001	-2.82461E-006	0.00000E+000	1.15997E-001	0.00000E+000	9	...........	1467.52
	385	9.65	1.15001E-001	-2.84550E-006	0.00000E+000	1.14998E-001	0.00000E+000	9	...........	1467.52
	386	9.675	1.13986E-001	-2.88079E-006	0.00000E+000	1.13998E-001	0.00000E+000	9	...........	1467.52
[...]
	1003	25.1	2.96994E-001	1.75396E-006	0.00000E+000	2.96997E-001	0.00000E+000	9	...........	1467.52
	1004	25.125	2.96008E-001	1.67209E-006	0.00000E+000	2.95997E-001	0.00000E+000	9	...........	1467.52
	1005	25.15	2.95012E-001	1.58648E-006	0.00000E+000	2.94998E-001	0.00000E+000	9	...........	1467.52
	1006	25.175	2.93979E-001	1.50589E-006	0.00000E+000	2.93998E-001	0.00000E+000	9	...........	1467.52
	1007	25.2	2.92982E-001	1.45098E-006	0.00000E+000	2.92998E-001	0.00000E+000	9	...........	1467.52
	1008	25.225	2.91980E-001	1.39692E-006	0.00000E+000	2.91999E-001	0.00000E+000	9	...........	1467.52
	1009	25.25	2.90975E-001	1.33612E-006	0.00000E+000	2.90999E-001	0.00000E+000	9	...........	1467.52
	1010	25.275	2.89990E-001	1.27604E-006	0.00000E+000	2.89999E-001	0.00000E+000	9	...........	1467.52
	1011	25.3	2.88995E-001	1.23678E-006	0.00000E+000	2.89000E-001	0.00000E+000	9	...........	1467.52
	1012	25.325	2.87995E-001	1.19664E-006	0.00000E+000	2.88000E-001	0.00000E+000	9	...........	1467.52
	1013	25.35	2.86989E-001	1.14705E-006	0.00000E+000	2.87000E-001	0.00000E+000	9	...........	1467.52
	1014	25.375	2.85991E-001	1.09701E-006	0.00000E+000	2.86001E-001	0.00000E+000	9	...........	1467.52
	1015	25.4	2.85000E-001	1.06457E-006	0.00000E+000	2.85001E-001	0.00000E+000	9	...........	1467.52
	1016	25.425	2.84003E-001	1.03465E-006	0.00000E+000	2.84001E-001	0.00000E+000	9	...........	1467.52
	1017	25.45	2.82994E-001	9.86214E-007	0.00000E+000	2.83002E-001	0.00000E+000	9	...........	1467.52
	1018	25.475	2.81989E-001	9.36400E-007	0.00000E+000	2.82002E-001	0.00000E+000	9	...........	1467.80
	1019	25.5	2.80972E-001	9.13039E-007	0.00000E+000	2.81002E-001	0.00000E+000	9	...........	1467.97
	1020	25.525	2.79980E-001	8.82581E-007	0.00000E+000	2.80003E-001	0.00000E+000	9	...........	1467.97
	1021	25.55	2.78975E-001	8.45470E-007	0.00000E+000	2.79003E-001	0.00000E+000	9	...........	1467.97
	1022	25.575	2.77985E-001	8.06313E-007	0.00000E+000	2.78003E-001	0.00000E+000	9	...........	1467.97
	1023	25.6	2.76986E-001	7.77568E-007	0.00000E+000	2.77004E-001	0.00000E+000	9	...........	1467.97
	1024	25.625	2.75992E-001	7.50136E-007	0.00000E+000	2.76004E-001	0.00000E+000	9	...........	1467.97
	1025	25.65	2.74989E-001	7.13137E-007	0.00000E+000	2.75004E-001	0.00000E+000	9	...........	1467.97
	1026	25.675	2.73991E-001	6.75737E-007	0.00000E+000	2.74005E-001	0.00000E+000	9	...........	1467.97
	1027	25.7	2.72997E-001	6.54223E-007	0.00000E+000	2.73005E-001	0.00000E+000	9	...........	1467.97
	1028	25.725	2.72002E-001	6.31818E-007	0.00000E+000	2.72006E-001	0.00000E+000	9	...........	1467.97
	1029	25.75	2.71010E-001	6.01961E-007	0.00000E+000	2.71006E-001	0.00000E+000	9	...........	1467.97
	1030	25.775	2.69997E-001	5.55595E-007	0.00000E+000	2.69994E-001	0.00000E+000	9	...........	1467.97
	1031	25.8	2.68997E-001	5.48097E-007	0.00000E+000	2.68994E-001	0.00000E+000	9	...........	1467.97
	1032	25.825	2.67961E-001	5.27718E-007	0.00000E+000	2.67994E-001	0.00000E+000	9	...........	1467.97
	1033	25.85	2.66963E-001	4.96570E-007	0.00000E+000	2.66995E-001	0.00000E+000	9	...........	1467.97
	1034	25.875	2.65976E-001	4.55277E-007	0.00000E+000	2.65995E-001	0.00000E+000	9	...........	1467.97
	1035	25.9	2.64975E-001	4.39458E-007	0.00000E+000	2.64995E-001	0.00000E+000	9	...........	1467.97
	1036	25.925	2.63973E-001	4.19546E-007	0.00000E+000	2.63996E-001	0.00000E+000	9	...........	1467.97
	1037	25.95	2.62982E-001	3.86195E-007	0.00000E+000	2.62996E-001	0.00000E+000	9	...........	1467.97
	1038	25.975	2.61972E-001	3.55737E-007	0.00000E+000	2.61997E-001	0.00000E+000	9	...........	1467.97
	1039	26	2.60977E-001	3.38873E-007	0.00000E+000	2.60997E-001	0.00000E+000	9	...........	1467.97
	1040	26.025	2.59981E-001	3.18382E-007	0.00000E+000	2.59997E-001	0.00000E+000	9	...........	1467.97
	1041	26.05	2.58987E-001	2.87101E-007	0.00000E+000	2.58998E-001	0.00000E+000	9	...........	1467.97
	1042	26.075	2.57988E-001	2.58356E-007	0.00000E+000	2.57998E-001	0.00000E+000	9	...........	1467.97
	1043	26.1	2.56993E-001	2.44250E-007	0.00000E+000	2.56998E-001	0.00000E+000	9	...........	1467.97
	1044	26.125	2.55985E-001	2.26540E-007	0.00000E+000	2.55999E-001	0.00000E+000	9	...........	1467.97
	1045	26.15	2.54972E-001	2.00532E-007	0.00000E+000	2.54999E-001	0.00000E+000	9	...........	1467.97
	1046	26.175	2.53979E-001	1.66425E-007	0.00000E+000	2.53999E-001	0.00000E+000	9	...........	1467.97
	1047	26.2	2.52982E-001	1.55902E-007	0.00000E+000	2.53000E-001	0.00000E+000	9	...........	1467.97
	1048	26.225	2.51986E-001	1.38503E-007	0.00000E+000	2.52000E-001	0.00000E+000	9	...........	1467.97
	1049	26.25	2.50988E-001	1.09736E-007	0.00000E+000	2.51000E-001	0.00000E+000	9	...........	1467.97
	1050	26.275	2.49990E-001	7.31373E-008	0.00000E+000	2.50001E-001	0.00000E+000	9	...........	1467.97
	1051	26.3	2.48988E-001	6.18129E-008	0.00000E+000	2.49001E-001	0.00000E+000	9	...........	1467.97
	1052	26.325	2.47999E-001	4.37249E-008	0.00000E+000	2.48001E-001	0.00000E+000	9	...........	1467.97
	1053	26.35	2.46996E-001	1.15536E-008	0.00000E+000	2.47002E-001	0.00000E+000	9	...........	1467.97
	1054	26.375	2.45992E-001	-1.75029E-008	0.00000E+000	2.46002E-001	0.00000E+000	9	...........	1467.97
	1055	26.4	2.44995E-001	-2.72254E-008	0.00000E+000	2.45002E-001	0.00000E+000	9	...........	1467.97
	1056	26.425	2.43999E-001	-4.13087E-008	0.00000E+000	2.44003E-001	0.00000E+000	9	...........	1467.97
	1057	26.45	2.42986E-001	-7.08992E-008	0.00000E+000	2.43003E-001	0.00000E+000	9	...........	1467.97
	1058	26.475	2.41984E-001	-9.94884E-008	0.00000E+000	2.42004E-001	0.00000E+000	9	...........	1467.62
	1059	26.5	2.40976E-001	-1.13549E-007	0.00000E+000	2.41004E-001	0.00000E+000	9	...........	1467.43
	1060	26.525	2.39988E-001	-1.25942E-007	0.00000E+000	2.40004E-001	0.00000E+000	9	...........	1467.43
	1061	26.55	2.38985E-001	-1.58247E-007	0.00000E+000	2.39005E-001	0.00000E+000	9	...........	1467.43
	1062	26.575	2.37987E-001	-1.85768E-007	0.00000E+000	2.38005E-001	0.00000E+000	9	...........	1467.43
	1063	26.6	2.36992E-001	-1.93644E-007	0.00000E+000	2.37005E-001	0.00000E+000	9	...........	1467.43
	1064	26.625	2.35986E-001	-2.13957E-007	0.00000E+000	2.36006E-001	0.00000E+000	9	...........	1467.43
	1065	26.65	2.34992E-001	-2.44103E-007	0.00000E+000	2.35006E-001	0.00000E+000	9	...........	1467.43
	1066	26.675	2.33993E-001	-2.82237E-007	0.00000E+000	2.33994E-001	0.00000E+000	9	...........	1467.43
	1067	26.7	2.32987E-001	-2.90180E-007	0.00000E+000	2.32994E-001	0.00000E+000	9	...........	1467.43
	1068	26.725	2.31992E-001	-2.99324E-007	0.00000E+000	2.31994E-001	0.00000E+000	9	...........	1467.43
	1069	26.75	2.30988E-001	-3.27980E-007	0.00000E+000	2.30995E-001	0.00000E+000	9	...........	1467.43
	1070	26.775	2.29969E-001	-3.54567E-007	0.00000E+000	2.29995E-001	0.00000E+000	9	...........	1467.43
	1071	26.8	2.28972E-001	-3.66626E-007	0.00000E+000	2.28996E-001	0.00000E+000	9	...........	1467.43
	1072	26.825	2.27976E-001	-3.84135E-007	0.00000E+000	2.27996E-001	0.00000E+000	9	...........	1467.43
	1073	26.85	2.26969E-001	-4.12457E-007	0.00000E+000	2.26996E-001	0.00000E+000	9	...........	1467.43
	1074	26.875	2.25970E-001	-4.39823E-007	0.00000E+000	2.25997E-001	0.00000E+000	9	...........	1467.43
	1075	26.9	2.24974E-001	-4.54285E-007	0.00000E+000	2.24997E-001	0.00000E+000	9	...........	1467.43
	1076	26.925	2.23988E-001	-4.67144E-007	0.00000E+000	2.23997E-001	0.00000E+000	9	...........	1467.43
	1077	26.95	2.22984E-001	-4.99916E-007	0.00000E+000	2.22998E-001	0.00000E+000	9	...........	1467.43
	1078	26.975	2.21989E-001	-5.31754E-007	0.00000E+000	2.21998E-001	0.00000E+000	9	...........	1467.43
	1079	27	2.20990E-001	-5.43056E-007	0.00000E+000	2.20998E-001	0.00000E+000	9	...........	1467.43
	1080	27.025	2.19987E-001	-5.59164E-007	0.00000E+000	2.19999E-001	0.00000E+000	9	...........	1467.43
	1081	27.05	2.18989E-001	-5.89088E-007	0.00000E+000	2.18999E-001	0.00000E+000	9	...........	1467.43
	1082	27.075	2.18007E-001	-6.16342E-007	0.00000E+000	2.17999E-001	0.00000E+000	9	...........	1467.43
	1083	27.1	2.16979E-001	-6.31382E-007	0.00000E+000	2.17000E-001	0.00000E+000	9	...........	1467.43
	1084	27.125	2.15980E-001	-6.52696E-007	0.00000E+000	2.16000E-001	0.00000E+000	9	...........	1467.43
	1085	27.15	2.14983E-001	-6.80974E-007	0.00000E+000	2.15000E-001	0.00000E+000	9	...........	1467.43
	1086	27.175	2.13975E-001	-7.11232E-007	0.00000E+000	2.14001E-001	0.00000E+000	9	...........	1467.43
	1087	27.2	2.12987E-001	-7.19108E-007	0.00000E+000	2.13001E-001	0.00000E+000	9	...........	1467.43
	1088	27.225	2.12003E-001	-7.42469E-007	0.00000E+000	2.12001E-001	0.00000E+000	9	...........	1467.43
	1089	27.25	2.10999E-001	-7.66230E-007	0.00000E+000	2.11002E-001	0.00000E+000	9	...........	1467.43
	1090	27.275	2.10000E-001	-7.98935E-007	0.00000E+000	2.10002E-001	0.00000E+000	9	...........	1467.43
	1091	27.3	2.09004E-001	-8.15867E-007	0.00000E+000	2.09003E-001	0.00000E+000	9	...........	1467.43
	1092	27.325	2.08006E-001	-8.27347E-007	0.00000E+000	2.08003E-001	0.00000E+000	9	...........	1467.43
	1093	27.35	2.06999E-001	-8.54334E-007	0.00000E+000	2.07003E-001	0.00000E+000	9	...........	1467.43
	1094	27.375	2.06007E-001	-8.78540E-007	0.00000E+000	2.06004E-001	0.00000E+000	9	...........	1467.43
	1095	27.4	2.05011E-001	-8.94648E-007	0.00000E+000	2.05004E-001	0.00000E+000	9	...........	1467.43
	1096	27.425	2.03995E-001	-9.11824E-007	0.00000E+000	2.04004E-001	0.00000E+000	9	...........	1467.43
	1097	27.45	2.02991E-001	-9.40769E-007	0.00000E+000	2.03005E-001	0.00000E+000	9	...........	1467.43
	1098	27.475	2.01995E-001	-9.71316E-007	0.00000E+000	2.02005E-001	0.00000E+000	9	...........	1467.49
	1099	27.5	2.00995E-001	-9.82530E-007	0.00000E+000	2.01005E-001	0.00000E+000	9	...........	1467.52
	1100	27.525	2.00004E-001	-9.97058E-007	0.00000E+000	2.00006E-001	0.00000E+000	9	...........	1467.52
	1101	27.55	1.99013E-001	-1.02044E-006	0.00000E+000	1.99006E-001	0.00000E+000	9	...........	1467.52
	1102	27.575	1.97989E-001	-1.06623E-006	0.00000E+000	1.97994E-001	0.00000E+000	9	...........	1467.52
	1103	27.6	1.96995E-001	-1.07337E-006	0.00000E+000	1.96994E-001	0.00000E+000	9	...........	1467.52
	1104	27.625	1.95999E-001	-1.09015E-006	0.00000E+000	1.95995E-001	0.00000E+000	9	...........	1467.52
	1105	27.65	1.95002E-001	-1.11813E-006	0.00000E+000	1.94995E-001	0.00000E+000	9	...........	1467.52
	1106	27.675	1.94008E-001	-1.14781E-006	0.00000E+000	1.93995E-001	0.00000E+000	9	...........	1467.52
	1107	27.7	1.93020E-001	-1.15952E-006	0.00000E+000	1.92996E-001	0.00000E+000	9	...........	1467.52
	1108	27.725	1.92017E-001	-1.17887E-006	0.00000E+000	1.91996E-001	0.00000E+000	9	...........	1467.52
	1109	27.75	1.90979E-001	-1.21224E-006	0.00000E+000	1.90996E-001	0.00000E+000	9	...........	1467.52
	1110	27.775	1.89980E-001	-1.24684E-006	0.00000E+000	1.89997E-001	0.00000E+000	9	...........	1467.52
	1111	27.8	1.88988E-001	-1.26086E-006	0.00000E+000	1.88997E-001	0.00000E+000	9	...........	1467.52
	1112	27.825	1.88004E-001	-1.27356E-006	0.00000E+000	1.87997E-001	0.00000E+000	9	...........	1467.52
	1113	27.85	1.87001E-001	-1.30337E-006	0.00000E+000	1.86998E-001	0.00000E+000	9	...........	1467.52
	1114	27.875	1.86003E-001	-1.33430E-006	0.00000E+000	1.85998E-001	0.00000E+000	9	...........	1467.52
	1115	27.9	1.84995E-001	-1.35174E-006	0.00000E+000	1.84998E-001	0.00000E+000	9	...........	1467.52
	1116	27.925	1.83993E-001	-1.36369E-006	0.00000E+000	1.83999E-001	0.00000E+000	9	...........	1467.52
	1117	27.95	1.82997E-001	-1.39419E-006	0.00000E+000	1.82999E-001	0.00000E+000	9	...........	1467.52
	1118	27.975	1.82000E-001	-1.42207E-006	0.00000E+000	1.81999E-001	0.00000E+000	9	...........	1467.52
	1119	28	1.81003E-001	-1.43687E-006	0.00000E+000	1.81000E-001	0.00000E+000	9	...........	1467.52
	1120	28.025	1.79991E-001	-1.45800E-006	0.00000E+000	1.80000E-001	0.00000E+000	9	...........	1467.52
	1121	28.05	1.78978E-001	-1.48946E-006	0.00000E+000	1.79000E-001	0.00000E+000	9	...........	1467.52
	1122	28.075	1.77981E-001	-1.51903E-006	0.00000E+000	1.78001E-001	0.00000E+000	9	...........	1467.52
	1123	28.1	1.76986E-001	-1.53342E-006	0.00000E+000	1.77001E-001	0.00000E+000	9	...........	1467.52
	1124	28.125	1.76003E-001	-1.55180E-006	0.00000E+000	1.76002E-001	0.00000E+000	9	...........	1467.52
	1125	28.15	1.74995E-001	-1.58237E-006	0.00000E+000	1.75002E-001	0.00000E+000	9	...........	1467.52
	1126	28.175	1.74003E-001	-1.60925E-006	0.00000E+000	1.74002E-001	0.00000E+000	9	...........	1467.52
	1127	28.2	1.73007E-001	-1.62382E-006	0.00000E+000	1.73003E-001	0.00000E+000	9	...........	1467.52
	1128	28.225	1.71997E-001	-1.63884E-006	0.00000E+000	1.72003E-001	0.00000E+000	9	...........	1467.52
	1129	28.25	1.70996E-001	-1.67103E-006	0.00000E+000	1.71003E-001	0.00000E+000	9	...........	1467.52
	1130	28.275	1.70007E-001	-1.70231E-006	0.00000E+000	1.70004E-001	0.00000E+000	9	...........	1467.52
	1131	28.3	1.69006E-001	-1.71967E-006	0.00000E+000	1.69004E-001	0.00000E+000	9	...........	1467.52
	1132	28.325	1.68009E-001	-1.73493E-006	0.00000E+000	1.68004E-001	0.00000E+000	9	...........	1467.52
	1133	28.35	1.67014E-001	-1.76725E-006	0.00000E+000	1.67005E-001	0.00000E+000	9	...........	1467.52
	1134	28.375	1.65985E-001	-1.79451E-006	0.00000E+000	1.66005E-001	0.00000E+000	9	...........	1467.52
	1135	28.4	1.64989E-001	-1.81195E-006	0.00000E+000	1.65005E-001	0.00000E+000	9	...........	1467.52
	1136	28.425	1.63999E-001	-1.82915E-006	0.00000E+000	1.64006E-001	0.00000E+000	9	...........	1467.52
	1137	28.45	1.62994E-001	-1.86121E-006	0.00000E+000	1.63006E-001	0.00000E+000	9	...........	1467.52
	1138	28.475	1.61982E-001	-1.90268E-006	0.00000E+000	1.61994E-001	0.00000E+000	9	...........	1467.46
	1139	28.5	1.60986E-001	-1.90386E-006	0.00000E+000	1.60994E-001	0.00000E+000	9	...........	1467.43
	1140	28.525	1.59991E-001	-1.91754E-006	0.00000E+000	1.59995E-001	0.00000E+000	9	...........	1467.43
	1141	28.55	1.58978E-001	-1.94871E-006	0.00000E+000	1.58995E-001	0.00000E+000	9	...........	1467.43
	1142	28.575	1.57992E-001	-1.97973E-006	0.00000E+000	1.57995E-001	0.00000E+000	9	...........	1467.43
	1143	28.6	1.56996E-001	-1.99377E-006	0.00000E+000	1.56996E-001	0.00000E+000	9	...........	1467.43
	1144	28.625	1.55984E-001	-2.01319E-006	0.00000E+000	1.55996E-001	0.00000E+000	9	...........	1467.43
	1145	28.65	1.54987E-001	-2.03900E-006	0.00000E+000	1.54996E-001	0.00000E+000	9	...........	1467.43
	1146	28.675	1.53975E-001	-2.06981E-006	0.00000E+000	1.53997E-001	0.00000E+000	9	...........	1467.43
	1147	28.7	1.52968E-001	-2.08183E-006	0.00000E+000	1.52997E-001	0.00000E+000	9	...........	1467.43
	1148	28.725	1.51976E-001	-2.10025E-006	0.00000E+000	1.51997E-001	0.00000E+000	9	...........	1467.43
	1149	28.75	1.50981E-001	-2.12988E-006	0.00000E+000	1.50998E-001	0.00000E+000	9	...........	1467.43
	1150	28.775	1.49983E-001	-2.16018E-006	0.00000E+000	1.49998E-001	0.00000E+000	9	...........	1467.43
	1151	28.8	1.48984E-001	-2.17489E-006	0.00000E+000	1.48998E-001	0.00000E+000	9	...........	1467.43
	1152	28.825	1.47998E-001	-2.18969E-006	0.00000E+000	1.47999E-001	0.00000E+000	9	...........	1467.43
	1153	28.85	1.47007E-001	-2.21966E-006	0.00000E+000	1.46999E-001	0.00000E+000	9	...........	1467.43
	1154	28.875	1.45992E-001	-2.25648E-006	0.00000E+000	1.46000E-001	0.00000E+000	9	...........	1467.43
	1155	28.9	1.44999E-001	-2.26782E-006	0.00000E+000	1.45000E-001	0.00000E+000	9	...........	1467.43
	1156	28.925	1.44000E-001	-2.28651E-006	0.00000E+000	1.44000E-001	0.00000E+000	9	...........	1467.43
	1157	28.95	1.43012E-001	-2.31748E-006	0.00000E+000	1.43001E-001	0.00000E+000	9	...........	1467.43
	1158	28.975	1.42016E-001	-2.34251E-006	0.00000E+000	1.42001E-001	0.00000E+000	9	...........	1467.43
	1159	29	1.41019E-001	-2.35566E-006	0.00000E+000	1.41001E-001	0.00000E+000	9	...........	1467.43
	1160	29.025	1.39995E-001	-2.37357E-006	0.00000E+000	1.40002E-001	0.00000E+000	9	...........	1467.43
	1161	29.05	1.38999E-001	-2.40661E-006	0.00000E+000	1.39002E-001	0.00000E+000	9	...........	1467.43
	1162	29.075	1.37999E-001	-2.43658E-006	0.00000E+000	1.38002E-001	0.00000E+000	9	...........	1467.43
	1163	29.1	1.36995E-001	-2.45226E-006	0.00000E+000	1.37003E-001	0.00000E+000	9	...........	1467.43
	1164	29.125	1.35998E-001	-2.46463E-006	0.00000E+000	1.36003E-001	0.00000E+000	9	...........	1467.43
	1165	29.15	1.34997E-001	-2.49740E-006	0.00000E+000	1.35003E-001	0.00000E+000	9	...........	1467.43
	1166	29.175	1.34000E-001	-2.52513E-006	0.00000E+000	1.34004E-001	0.00000E+000	9	...........	1467.43
	1167	29.2	1.33008E-001	-2.54014E-006	0.00000E+000	1.33004E-001	0.00000E+000	9	...........	1467.43
	1168	29.225	1.32015E-001	-2.55792E-006	0.00000E+000	1.32004E-001	0.00000E+000	9	...........	1467.43
	1169	29.25	1.31015E-001	-2.58878E-006	0.00000E+000	1.31005E-001	0.00000E+000	9	...........	1467.43
	1170	29.275	1.30012E-001	-2.62280E-006	0.00000E+000	1.30005E-001	0.00000E+000	9	...........	1467.43
	1171	29.3	1.29018E-001	-2.63385E-006	0.00000E+000	1.29005E-001	0.00000E+000	9	...........	1467.43
	1172	29.325	1.28014E-001	-2.64665E-006	0.00000E+000	1.28006E-001	0.00000E+000	9	...........	1467.43
	1173	29.35	1.27000E-001	-2.68471E-006	0.00000E+000	1.27006E-001	0.00000E+000	9	...........	1467.43
	1174	29.375	1.25982E-001	-2.71867E-006	0.00000E+000	1.25994E-001	0.00000E+000	9	...........	1467.43
	1175	29.4	1.24986E-001	-2.72096E-006	0.00000E+000	1.24994E-001	0.00000E+000	9	...........	1467.43
	1176	29.425	1.23989E-001	-2.73818E-006	0.00000E+000	1.23995E-001	0.00000E+000	9	...........	1467.43
	1177	29.45	1.22987E-001	-2.76717E-006	0.00000E+000	1.22995E-001	0.00000E+000	9	...........	1467.43
	1178	29.475	1.22000E-001	-2.79596E-006	0.00000E+000	1.21995E-001	0.00000E+000	9	...........	1467.69
	1179	29.5	1.20999E-001	-2.80875E-006	0.00000E+000	1.20996E-001	0.00000E+000	9	...........	1467.79
	1180	29.525	1.20001E-001	-2.82659E-006	0.00000E+000	1.19996E-001	0.00000E+000	9	...........	1467.79
	1181	29.55	1.18997E-001	-2.85676E-006	0.00000E+000	1.18996E-001	0.00000E+000	9	...........	1467.79
	1182	29.575	1.17993E-001	-2.88891E-006	0.00000E+000	1.17997E-001	0.00000E+000	9	...........	1467.79
	1183	29.6	1.17000E-001	-2.90435E-006	0.00000E+000	1.16997E-001	0.00000E+000	9	...........	1467.79
	1184	29.625	1.16006E-001	-2.91788E-006	0.00000E+000	1.15997E-001	0.00000E+000	9	...........	1467.79
	1185	29.65	1.15000E-001	-2.94974E-006	0.00000E+000	1.14998E-001	0.00000E+000	9	...........	1467.79
	1186	29.675	1.13985E-001	-2.97775E-006	0.00000E+000	1.13998E-001	0.00000E+000	9	...........	1467.79
	1187	29.7	1.12989E-001	-2.99185E-006	0.00000E+000	1.12999E-001	0.00000E+000	9	...........	1467.79
	1188	29.725	1.11991E-001	-3.01212E-006	0.00000E+000	1.11999E-001	0.00000E+000	9	...........	1467.79
	1189	29.75	1.10998E-001	-3.04051E-006	0.00000E+000	1.10999E-001	0.00000E+000	9	...........	1467.79
	1190	29.775	1.10005E-001	-3.07357E-006	0.00000E+000	1.10000E-001	0.00000E+000	9	...........	1467.79
	1191	29.8	1.09005E-001	-3.08399E-006	0.00000E+000	1.09000E-001	0.00000E+000	9	...........	1467.79
	1192	29.825	1.07996E-001	-3.10730E-006	0.00000E+000	1.08000E-001	0.00000E+000	9	...........	1467.79
	1193	29.85	1.06998E-001	-3.13943E-006	0.00000E+000	1.07001E-001	0.00000E+000	9	...........	1467.79
	1194	29.875	1.06005E-001	-3.16744E-006	0.00000E+000	1.06001E-001	0.00000E+000	9	...........	1467.79
	1195	29.9	1.05003E-001	-3.18962E-006	0.00000E+000	1.05001E-001	0.00000E+000	9	...........	1467.79
	1196	29.925	1.04020E-001	-3.20063E-006	0.00000E+000	1.04002E-001	0.00000E+000	9	...........	1467.79
	1197	29.95	1.03018E-001	-3.23708E-006	0.00000E+000	1.03002E-001	0.00000E+000	9	...........	1467.79
	1198	29.975	1.02002E-001	-3.26295E-006	0.00000E+000	1.02002E-001	0.00000E+000	9	...........	1467.79
	1199	30	1.01005E-001	-3.27417E-006	0.00000E+000	1.01003E-001	0.00000E+000	9	...........	1467.79
	1200	30.025	1.00005E-001	-3.30077E-006	0.00000E+000	1.00003E-001	0.00000E+000	9	...........	1467.79
CURVE4	TABLE
	Pt	T	Vf	Im	Vu	Sig	Ach	IERange	Over	Temp
	#	s	V vs. Ref.	A	V	V	V	#	bits	deg C
	1201	30.05	9.99940E-002	-2.65448E-006	0.00000E+000	1.00003E-001	0.00000E+000	9	...........	1467.79