File: input/ECSA_test/CV_ECSA_#2_#1.DTA
EXPLAIN
TAG	CV
TITLE	LABEL	ECSA	Test Identifier
DATE	LABEL	2/13/2024	Date
TIME	LABEL	12:00:14	Time
NOTES	NOTES	1	Notes...

PSTAT	PSTAT	IFC1010-36068	Potentiostat
VINIT	POTEN	1.00000E-001	F	Initial E (V)
VLIMIT1	POTEN	3.00000E-001	F	Scan Limit 1 (V)
VLIMIT2	POTEN	1.00000E-001	F	Scan Limit 2 (V)
VFINAL	POTEN	1.00000E-001	F	Final E (V)
SCANRATE	QUANT	1.00000E+001	A Real Number
STEPSIZE	QUANT	1.00000E+000	Step Size (mV)
CYCLES	IQUANT	3	Cycles (#)
IMODE	SELECTOR	1	I/E Range Mode
IRANGE	QUANT	3.00000E-001	Max Current (mA)
AREA	QUANT	1.00000E+000	Sample Area (cm^2)
EQDELAY	QUANT	0.00000E+000	Equil. Time (s)
IRCOMP	SELECTOR	0	IRComp
PFCOR	QUANT	5.00000E+001	PF Corr. (ohm)
SAMPLINGMODE	SELECTOR	2	Sampling Mode
EOC	QUANT	0.3246219	Open Circuit (V)
ELECTRODETYPE	SELECTOR	0	Electrode Type
STRIPPING	TOGGLE	F	Used for Stripping
SEQUENCER	TOGGLE	TRUE	Run as Sequence
PSTATMODEL	IQUANT	64	Pstat Model
PSTATSECTION	LABEL	IFC1010-36068	Pstat Section
PSTATSERIALNO	LABEL	36068	Pstat Serial Number
CTRLMODE	IQUANT	1	Control Mode
ELECTROMETER	IQUANT	0	RE=0 or CS=1
IESTAB	IQUANT	2	I/E Stability
CASPEED	IQUANT	4	Control Amp Speed
CONVENTION	IQUANT	1	Current Convention
ICHRANGE	IQUANT	2	Ich Range
ICHRANGEMODE	TOGGLE	F	Ich Auto Range
ICHOFFSETENABLE	TOGGLE	F	Ich Offset Enable
ICHOFFSET	QUANT	0	Ich Offset (V)
ICHFILTER	IQUANT	3	Ich Filter
VCHRANGE	IQUANT	2	Vch Range
VCHRANGEMODE	TOGGLE	F	Vch Auto Range
VCHOFFSETENABLE	TOGGLE	F	Vch Offset Enable
VCHOFFSET	QUANT	0	Vch Offset (V)
VCHFILTER	IQUANT	3	Vch Filter
IERANGELOWERLIMIT	IQUANT	4	I/E Range Lower Limit
IERANGEMODE	TOGGLE	F	I/E AutoRange
IERANGE	IQUANT	9	I/E Range
ACHSELECT	IQUANT	0	Ach Select
ACHRANGE	IQUANT	2	Ach Range
ACHOFFSETENABLE	TOGGLE	F	Ach Offset Enable
ACHOFFSET	QUANT	0	Ach Offset (V)
ACHFILTER	IQUANT	1	Ach Filter
SENSECABLEID	IQUANT	13	Sense Cable ID
PWRCABLEID	IQUANT	13	Power Cable ID
DCCALDATE	LABEL	8/11/2023	DC Calibration Date
ACCALDATE	LABEL	6/2/2023	AC Calibration Date
FRAMEWORKVERSION	LABEL	7.10.3	Framework Version
INSTRUMENTVERSION	LABEL	4.91	Instrument Version
COMMVERSION	LABEL	3.10	Communications Version
CPUPLDVERSION	LABEL	2.22	CPU PLD Version
CTRLPLDVERSION	LABEL	0.00	CTRL PLD Version
PSTATPLDVERSION	LABEL	0.00	PSTAT PLD Version
CURVE1	TABLE
	Pt	T	Vf	Im	Vu	Sig	Ach	IERange	Over	Temp
	#	s	V vs. Ref.	A	V	V	V	#	bits	deg C
	0	0.1	9.99891E-002	4.32916E-006	0.00000E+000	1.00003E-001	0.00000E+000	9	...........	1468.34
	1	0.2	1.00993E-001	2.95151E-006	0.00000E+000	1.01003E-001	0.00000E+000	9	...........	1468.34
	2	0.3	1.01984E-001	2.44947E-006	0.00000E+000	1.02002E-001	0.00000E+000	9	...........	1468.34
	3	0.4	1.03002E-001	2.18773E-006	0.00000E+000	1.03002E-001	0.00000E+000	9	...........	1468.34
	4	0.5	1.04003E-001	2.02539E-006	0.00000E+000	1.04002E-001	0.00000E+000	9	...........	1468.34
	5	0.6	1.04986E-001	1.91613E-006	0.00000E+000	1.05001E-001	0.00000E+000	9	...........	1468.34
	6	0.7	1.05981E-001	1.83968E-006	0.00000E+000	1.06001E-001	0.00000E+000	9	...........	1468.34
	7	0.8	1.06978E-001	1.78586E-006	0.00000E+000	1.07001E-001	0.00000E+000	9	...........	1468.34
	8	0.9	1.07979E-001	1.74255E-006	0.00000E+000	1.08000E-001	0.00000E+000	9	...........	1468.34
	9	1	1.08983E-001	1.70944E-006	0.00000E+000	1.09000E-001	0.00000E+000	9	...........	1468.34
	10	1.1	1.09981E-001	1.68375E-006	0.00000E+000	1.10000E-001	0.00000E+000	9	...........	1468.34
	11	1.2	1.10986E-001	1.65941E-006	0.00000E+000	1.10999E-001	0.00000E+000	9	...........	1467.64
	12	1.3	1.11977E-001	1.63622E-006	0.00000E+000	1.11999E-001	0.00000E+000	9	...........	1467.52
	13	1.4	1.12977E-001	1.62479E-006	0.00000E+000	1.12999E-001	0.00000E+000	9	...........	1467.52
	14	1.5	1.13968E-001	1.61637E-006	0.00000E+000	1.13998E-001	0.00000E+000	9	...........	1467.52
	15	1.6	1.14986E-001	1.61195E-006	0.00000E+000	1.14998E-001	0.00000E+000	9	...........	1467.52
	16	1.7	1.16001E-001	1.60810E-006	0.00000E+000	1.15997E-001	0.00000E+000	9	...........	1467.52
	17	1.8	1.16993E-001	1.60688E-006	0.00000E+000	1.16997E-001	0.00000E+000	9	...........	1467.52
	18	1.9	1.17983E-001	1.60687E-006	0.00000E+000	1.17997E-001	0.00000E+000	9	...........	1467.52
	19	2	1.18995E-001	1.60731E-006	0.00000E+000	1.18996E-001	0.00000E+000	9	...........	1467.52
	20	2.1	1.19982E-001	1.60237E-006	0.00000E+000	1.19996E-001	0.00000E+000	9	...........	1467.52
	21	2.2	1.20977E-001	1.60158E-006	0.00000E+000	1.20996E-001	0.00000E+000	9	...........	1467.52
	22	2.3	1.21988E-001	1.60421E-006	0.00000E+000	1.21995E-001	0.00000E+000	9	...........	1467.52
	23	2.4	1.22986E-001	1.61086E-006	0.00000E+000	1.22995E-001	0.00000E+000	9	...........	1467.52
	24	2.5	1.23972E-001	1.61134E-006	0.00000E+000	1.23995E-001	0.00000E+000	9	...........	1467.52
	25	2.6	1.24982E-001	1.61846E-006	0.00000E+000	1.24994E-001	0.00000E+000	9	...........	1467.52
	26	2.7	1.25974E-001	1.61594E-006	0.00000E+000	1.25994E-001	0.00000E+000	9	...........	1467.52
	27	2.8	1.26986E-001	1.62703E-006	0.00000E+000	1.27006E-001	0.00000E+000	9	...........	1467.52
	28	2.9	1.27994E-001	1.63379E-006	0.00000E+000	1.28006E-001	0.00000E+000	9	...........	1467.52
	29	3	1.28998E-001	1.63942E-006	0.00000E+000	1.29005E-001	0.00000E+000	9	...........	1467.52
	30	3.1	1.30000E-001	1.64417E-006	0.00000E+000	1.30005E-001	0.00000E+000	9	...........	1467.52
	31	3.2	1.31008E-001	1.65174E-006	0.00000E+000	1.31005E-001	0.00000E+000	9	...........	1467.52
	32	3.3	1.32002E-001	1.65627E-006	0.00000E+000	1.32004E-001	0.00000E+000	9	...........	1467.52
	33	3.4	1.32997E-001	1.66148E-006	0.00000E+000	1.33004E-001	0.00000E+000	9	...........	1467.52
	34	3.5	1.33993E-001	1.67049E-006	0.00000E+000	1.34004E-001	0.00000E+000	9	...........	1467.52
	35	3.6	1.34993E-001	1.67759E-006	0.00000E+000	1.35003E-001	0.00000E+000	9	...........	1467.52
	36	3.7	1.35991E-001	1.68654E-006	0.00000E+000	1.36003E-001	0.00000E+000	9	...........	1467.52
	37	3.8	1.36989E-001	1.69194E-006	0.00000E+000	1.37003E-001	0.00000E+000	9	...........	1467.52
	38	3.9	1.37997E-001	1.70374E-006	0.00000E+000	1.38002E-001	0.00000E+000	9	...........	1467.52
	39	4	1.38992E-001	1.70797E-006	0.00000E+000	1.39002E-001	0.00000E+000	9	...........	1467.52
	40	4.1	1.39985E-001	1.71427E-006	0.00000E+000	1.40002E-001	0.00000E+000	9	...........	1467.52
	41	4.2	1.41002E-001	1.72046E-006	0.00000E+000	1.41001E-001	0.00000E+000	9	...........	1467.52
	42	4.3	1.41998E-001	1.73490E-006	0.00000E+000	1.42001E-001	0.00000E+000	9	...........	1467.52
	43	4.4	1.42988E-001	1.74210E-006	0.00000E+000	1.43001E-001	0.00000E+000	9	...........	1467.52
	44	4.5	1.43983E-001	1.74770E-006	0.00000E+000	1.44000E-001	0.00000E+000	9	...........	1467.52
	45	4.6	1.44988E-001	1.75559E-006	0.00000E+000	1.45000E-001	0.00000E+000	9	...........	1467.52
	46	4.7	1.45981E-001	1.76458E-006	0.00000E+000	1.46000E-001	0.00000E+000	9	...........	1467.52
	47	4.8	1.46989E-001	1.77833E-006	0.00000E+000	1.46999E-001	0.00000E+000	9	...........	1467.52
	48	4.9	1.47993E-001	1.79081E-006	0.00000E+000	1.47999E-001	0.00000E+000	9	...........	1467.52
	49	5	1.48974E-001	1.79700E-006	0.00000E+000	1.48998E-001	0.00000E+000	9	...........	1467.52
	50	5.1	1.49974E-001	1.80357E-006	0.00000E+000	1.49998E-001	0.00000E+000	9	...........	1467.52
	51	5.2	1.50974E-001	1.81569E-006	0.00000E+000	1.50998E-001	0.00000E+000	9	...........	1467.52
	52	5.3	1.51971E-001	1.82438E-006	0.00000E+000	1.51997E-001	0.00000E+000	9	...........	1467.52
	53	5.4	1.52970E-001	1.84933E-006	0.00000E+000	1.52997E-001	0.00000E+000	9	...........	1467.52
	54	5.5	1.53967E-001	1.86962E-006	0.00000E+000	1.53997E-001	0.00000E+000	9	...........	1467.52
	55	5.6	1.54977E-001	1.87665E-006	0.00000E+000	1.54996E-001	0.00000E+000	9	...........	1467.52
	56	5.7	1.55984E-001	1.88412E-006	0.00000E+000	1.55996E-001	0.00000E+000	9	...........	1467.52
	57	5.8	1.56992E-001	1.88767E-006	0.00000E+000	1.56996E-001	0.00000E+000	9	...........	1467.52
	58	5.9	1.57990E-001	1.89969E-006	0.00000E+000	1.57995E-001	0.00000E+000	9	...........	1467.52
	59	6	1.58970E-001	1.91879E-006	0.00000E+000	1.58995E-001	0.00000E+000	9	...........	1467.52
	60	6.1	1.59971E-001	1.92852E-006	0.00000E+000	1.59995E-001	0.00000E+000	9	...........	1467.52
	61	6.2	1.60973E-001	1.93265E-006	0.00000E+000	1.60994E-001	0.00000E+000	9	...........	1467.91
	62	6.3	1.61974E-001	1.94334E-006	0.00000E+000	1.61994E-001	0.00000E+000	9	...........	1467.97
	63	6.4	1.62986E-001	1.96324E-006	0.00000E+000	1.63006E-001	0.00000E+000	9	...........	1467.97
	64	6.5	1.63992E-001	1.96789E-006	0.00000E+000	1.64006E-001	0.00000E+000	9	...........	1467.97
	65	6.6	1.64968E-001	1.98144E-006	0.00000E+000	1.65005E-001	0.00000E+000	9	...........	1467.97
	66	6.7	1.65962E-001	1.99201E-006	0.00000E+000	1.66005E-001	0.00000E+000	9	...........	1467.97
	67	6.8	1.66995E-001	2.00333E-006	0.00000E+000	1.67005E-001	0.00000E+000	9	...........	1467.97
	68	6.9	1.68002E-001	2.00924E-006	0.00000E+000	1.68004E-001	0.00000E+000	9	...........	1467.97
	69	7	1.68993E-001	2.01955E-006	0.00000E+000	1.69004E-001	0.00000E+000	9	...........	1467.97
	70	7.1	1.69994E-001	2.02895E-006	0.00000E+000	1.70004E-001	0.00000E+000	9	...........	1467.97
	71	7.2	1.70983E-001	2.04250E-006	0.00000E+000	1.71003E-001	0.00000E+000	9	...........	1467.66
	72	7.3	1.71986E-001	2.05410E-006	0.00000E+000	1.72003E-001	0.00000E+000	9	...........	1467.61
	73	7.4	1.72983E-001	2.06636E-006	0.00000E+000	1.73003E-001	0.00000E+000	9	...........	1467.61
	74	7.5	1.73979E-001	2.07357E-006	0.00000E+000	1.74002E-001	0.00000E+000	9	...........	1467.61
	75	7.6	1.74978E-001	2.08933E-006	0.00000E+000	1.75002E-001	0.00000E+000	9	...........	1467.61
	76	7.7	1.75987E-001	2.10480E-006	0.00000E+000	1.76002E-001	0.00000E+000	9	...........	1467.61
	77	7.8	1.76972E-001	2.11372E-006	0.00000E+000	1.77001E-001	0.00000E+000	9	...........	1467.61
	78	7.9	1.77970E-001	2.12924E-006	0.00000E+000	1.78001E-001	0.00000E+000	9	...........	1467.61
	79	8	1.78973E-001	2.13917E-006	0.00000E+000	1.79000E-001	0.00000E+000	9	...........	1467.61
	80	8.1	1.79974E-001	2.15002E-006	0.00000E+000	1.80000E-001	0.00000E+000	9	...........	1467.61
	81	8.2	1.80990E-001	2.16625E-006	0.00000E+000	1.81000E-001	0.00000E+000	9	...........	1467.46
	82	8.3	1.81989E-001	2.18487E-006	0.00000E+000	1.81999E-001	0.00000E+000	9	...........	1467.43
	83	8.4	1.82978E-001	2.19443E-006	0.00000E+000	1.82999E-001	0.00000E+000	9	...........	1467.43
	84	8.5	1.83986E-001	2.20487E-006	0.00000E+000	1.83999E-001	0.00000E+000	9	...........	1467.43
	85	8.6	1.84974E-001	2.22056E-006	0.00000E+000	1.84998E-001	0.00000E+000	9	...........	1467.43
	86	8.7	1.85977E-001	2.23124E-006	0.00000E+000	1.85998E-001	0.00000E+000	9	...........	1467.43
	87	8.8	1.86981E-001	2.24293E-006	0.00000E+000	1.86998E-001	0.00000E+000	9	...........	1467.43
	88	8.9	1.87985E-001	2.25994E-006	0.00000E+000	1.87997E-001	0.00000E+000	9	...........	1467.43
	89	9	1.88977E-001	2.27175E-006	0.00000E+000	1.88997E-001	0.00000E+000	9	...........	1467.43
	90	9.1	1.89975E-001	2.28617E-006	0.00000E+000	1.89997E-001	0.00000E+000	9	...........	1467.43
	91	9.2	1.90973E-001	2.29948E-006	0.00000E+000	1.90996E-001	0.00000E+000	9	...........	1467.51
	92	9.3	1.92001E-001	2.30792E-006	0.00000E+000	1.91996E-001	0.00000E+000	9	...........	1467.52
	93	9.4	1.92995E-001	2.32726E-006	0.00000E+000	1.92996E-001	0.00000E+000	9	...........	1467.52
	94	9.5	1.93989E-001	2.34058E-006	0.00000E+000	1.93995E-001	0.00000E+000	9	...........	1467.52
	95	9.6	1.94985E-001	2.35343E-006	0.00000E+000	1.94995E-001	0.00000E+000	9	...........	1467.52
	96	9.7	1.95984E-001	2.36196E-006	0.00000E+000	1.95995E-001	0.00000E+000	9	...........	1467.52
	97	9.8	1.96977E-001	2.37842E-006	0.00000E+000	1.96994E-001	0.00000E+000	9	...........	1467.52
	98	9.9	1.97977E-001	2.39044E-006	0.00000E+000	1.97994E-001	0.00000E+000	9	...........	1467.52
	99	10	1.99001E-001	2.40783E-006	0.00000E+000	1.99006E-001	0.00000E+000	9	...........	1467.52
	100	10.1	1.99991E-001	2.41763E-006	0.00000E+000	2.00006E-001	0.00000E+000	9	...........	1467.52
	101	10.2	2.00975E-001	2.42736E-006	0.00000E+000	2.01005E-001	0.00000E+000	9	...........	1467.91
	102	10.3	2.01980E-001	2.43985E-006	0.00000E+000	2.02005E-001	0.00000E+000	9	...........	1467.97
	103	10.4	2.02975E-001	2.45283E-006	0.00000E+000	2.03005E-001	0.00000E+000	9	...........	1467.97
	104	10.5	2.03976E-001	2.46822E-006	0.00000E+000	2.04004E-001	0.00000E+000	9	...........	1467.97
	105	10.6	2.04993E-001	2.47633E-006	0.00000E+000	2.05004E-001	0.00000E+000	9	...........	1467.97
	106	10.7	2.05992E-001	2.49004E-006	0.00000E+000	2.06004E-001	0.00000E+000	9	...........	1467.97
	107	10.8	2.06977E-001	2.50623E-006	0.00000E+000	2.07003E-001	0.00000E+000	9	...........	1467.97
	108	10.9	2.07981E-001	2.52038E-006	0.00000E+000	2.08003E-001	0.00000E+000	9	...........	1467.97
	109	11	2.08983E-001	2.53091E-006	0.00000E+000	2.09003E-001	0.00000E+000	9	...........	1467.97
	110	11.1	2.09986E-001	2.54731E-006	0.00000E+000	2.10002E-001	0.00000E+000	9	...........	1467.97
	111	11.2	2.10986E-001	2.56312E-006	0.00000E+000	2.11002E-001	0.00000E+000	9	...........	1467.58
	112	11.3	2.11986E-001	2.57446E-006	0.00000E+000	2.12001E-001	0.00000E+000	9	...........	1467.52
	113	11.4	2.12968E-001	2.58299E-006	0.00000E+000	2.13001E-001	0.00000E+000	9	...........	1467.52
	114	11.5	2.13963E-001	2.59826E-006	0.00000E+000	2.14001E-001	0.00000E+000	9	...........	1467.52
	115	11.6	2.14965E-001	2.61327E-006	0.00000E+000	2.15000E-001	0.00000E+000	9	...........	1467.52
	116	11.7	2.15962E-001	2.62523E-006	0.00000E+000	2.16000E-001	0.00000E+000	9	...........	1467.52
	117	11.8	2.16960E-001	2.64143E-006	0.00000E+000	2.17000E-001	0.00000E+000	9	...........	1467.52
	118	11.9	2.17990E-001	2.65359E-006	0.00000E+000	2.17999E-001	0.00000E+000	9	...........	1467.52
	119	12	2.18973E-001	2.67061E-006	0.00000E+000	2.18999E-001	0.00000E+000	9	...........	1467.52
	120	12.1	2.19967E-001	2.68499E-006	0.00000E+000	2.19999E-001	0.00000E+000	9	...........	1467.52
	121	12.2	2.20981E-001	2.69432E-006	0.00000E+000	2.20998E-001	0.00000E+000	9	...........	1467.44
	122	12.3	2.21974E-001	2.70309E-006	0.00000E+000	2.21998E-001	0.00000E+000	9	...........	1467.43
	123	12.4	2.22966E-001	2.71838E-006	0.00000E+000	2.22998E-001	0.00000E+000	9	...........	1467.43
	124	12.5	2.23977E-001	2.73165E-006	0.00000E+000	2.23997E-001	0.00000E+000	9	...........	1467.43
	125	12.6	2.24972E-001	2.74412E-006	0.00000E+000	2.24997E-001	0.00000E+000	9	...........	1467.43
	126	12.7	2.25963E-001	2.75690E-006	0.00000E+000	2.25997E-001	0.00000E+000	9	...........	1467.43
	127	12.8	2.26971E-001	2.76859E-006	0.00000E+000	2.26996E-001	0.00000E+000	9	...........	1467.43
	128	12.9	2.27976E-001	2.78650E-006	0.00000E+000	2.27996E-001	0.00000E+000	9	...........	1467.43
	129	13	2.28962E-001	2.80202E-006	0.00000E+000	2.28996E-001	0.00000E+000	9	...........	1467.43
	130	13.1	2.29958E-001	2.81364E-006	0.00000E+000	2.29995E-001	0.00000E+000	9	...........	1467.43
	131	13.2	2.30976E-001	2.82239E-006	0.00000E+000	2.30995E-001	0.00000E+000	9	...........	1467.51
	132	13.3	2.31980E-001	2.83317E-006	0.00000E+000	2.31994E-001	0.00000E+000	9	...........	1467.52
	133	13.4	2.32979E-001	2.84844E-006	0.00000E+000	2.32994E-001	0.00000E+000	9	...........	1467.52
	134	13.5	2.33989E-001	2.86574E-006	0.00000E+000	2.33994E-001	0.00000E+000	9	...........	1467.52
	135	13.6	2.34993E-001	2.87966E-006	0.00000E+000	2.35006E-001	0.00000E+000	9	...........	1467.52
	136	13.7	2.35980E-001	2.89213E-006	0.00000E+000	2.36006E-001	0.00000E+000	9	...........	1467.52
	137	13.8	2.36987E-001	2.91024E-006	0.00000E+000	2.37005E-001	0.00000E+000	9	...........	1467.52
	138	13.9	2.37984E-001	2.92116E-006	0.00000E+000	2.38005E-001	0.00000E+000	9	...........	1467.52
	139	14	2.38979E-001	2.93353E-006	0.00000E+000	2.39005E-001	0.00000E+000	9	...........	1467.52
	140	14.1	2.39983E-001	2.94746E-006	0.00000E+000	2.40004E-001	0.00000E+000	9	...........	1467.52
	141	14.2	2.40965E-001	2.96076E-006	0.00000E+000	2.41004E-001	0.00000E+000	9	...........	1467.92
	142	14.3	2.41972E-001	2.97684E-006	0.00000E+000	2.42004E-001	0.00000E+000	9	...........	1467.97
	143	14.4	2.42991E-001	2.98990E-006	0.00000E+000	2.43003E-001	0.00000E+000	9	...........	1467.97
	144	14.5	2.43998E-001	2.99845E-006	0.00000E+000	2.44003E-001	0.00000E+000	9	...........	1467.97
	145	14.6	2.44976E-001	3.00808E-006	0.00000E+000	2.45002E-001	0.00000E+000	9	...........	1467.97
	146	14.7	2.45970E-001	3.02785E-006	0.00000E+000	2.46002E-001	0.00000E+000	9	...........	1467.97
	147	14.8	2.46980E-001	3.04267E-006	0.00000E+000	2.47002E-001	0.00000E+000	9	...........	1467.97
	148	14.9	2.47972E-001	3.05787E-006	0.00000E+000	2.48001E-001	0.00000E+000	9	...........	1467.97
	149	15	2.48968E-001	3.07178E-006	0.00000E+000	2.49001E-001	0.00000E+000	9	...........	1467.97
	150	15.1	2.49975E-001	3.08751E-006	0.00000E+000	2.50001E-001	0.00000E+000	9	...........	1467.97
	151	15.2	2.50977E-001	3.10119E-006	0.00000E+000	2.51000E-001	0.00000E+000	9	...........	1467.50
	152	15.3	2.51965E-001	3.11553E-006	0.00000E+000	2.52000E-001	0.00000E+000	9	...........	1467.43
	153	15.4	2.52958E-001	3.13222E-006	0.00000E+000	2.53000E-001	0.00000E+000	9	...........	1467.43
	154	15.5	2.53957E-001	3.14843E-006	0.00000E+000	2.53999E-001	0.00000E+000	9	...........	1467.43
	155	15.6	2.54954E-001	3.16100E-006	0.00000E+000	2.54999E-001	0.00000E+000	9	...........	1467.43
	156	15.7	2.55975E-001	3.17445E-006	0.00000E+000	2.55999E-001	0.00000E+000	9	...........	1467.43
	157	15.8	2.56986E-001	3.18887E-006	0.00000E+000	2.56998E-001	0.00000E+000	9	...........	1467.43
	158	15.9	2.57978E-001	3.20839E-006	0.00000E+000	2.57998E-001	0.00000E+000	9	...........	1467.43
	159	16	2.58972E-001	3.22154E-006	0.00000E+000	2.58998E-001	0.00000E+000	9	...........	1467.43
	160	16.1	2.59973E-001	3.23189E-006	0.00000E+000	2.59997E-001	0.00000E+000	9	...........	1467.43
	161	16.2	2.60961E-001	3.24606E-006	0.00000E+000	2.60997E-001	0.00000E+000	9	...........	1467.51
	162	16.3	2.61959E-001	3.25480E-006	0.00000E+000	2.61997E-001	0.00000E+000	9	...........	1467.52
	163	16.4	2.62970E-001	3.26995E-006	0.00000E+000	2.62996E-001	0.00000E+000	9	...........	1467.52
	164	16.5	2.63967E-001	3.28565E-006	0.00000E+000	2.63996E-001	0.00000E+000	9	...........	1467.52
	165	16.6	2.64959E-001	3.30346E-006	0.00000E+000	2.64995E-001	0.00000E+000	9	...........	1467.52
	166	16.7	2.65963E-001	3.31736E-006	0.00000E+000	2.65995E-001	0.00000E+000	9	...........	1467.52
	167	16.8	2.66961E-001	3.33005E-006	0.00000E+000	2.66995E-001	0.00000E+000	9	...........	1467.52
	168	16.9	2.67959E-001	3.34781E-006	0.00000E+000	2.67994E-001	0.00000E+000	9	...........	1467.52
	169	17	2.68992E-001	3.36020E-006	0.00000E+000	2.68994E-001	0.00000E+000	9	...........	1467.52
	170	17.1	2.69988E-001	3.38014E-006	0.00000E+000	2.70006E-001	0.00000E+000	9	...........	1467.52
	171	17.2	2.70987E-001	3.39633E-006	0.00000E+000	2.71006E-001	0.00000E+000	9	...........	1467.52
	172	17.3	2.71988E-001	3.40698E-006	0.00000E+000	2.72006E-001	0.00000E+000	9	...........	1467.52
	173	17.4	2.72980E-001	3.42215E-006	0.00000E+000	2.73005E-001	0.00000E+000	9	...........	1467.52
	174	17.5	2.73984E-001	3.43706E-006	0.00000E+000	2.74005E-001	0.00000E+000	9	...........	1467.52
	175	17.6	2.74981E-001	3.44935E-006	0.00000E+000	2.75004E-001	0.00000E+000	9	...........	1467.52
	176	17.7	2.75979E-001	3.46109E-006	0.00000E+000	2.76004E-001	0.00000E+000	9	...........	1467.52
	177	17.8	2.76978E-001	3.47846E-006	0.00000E+000	2.77004E-001	0.00000E+000	9	...........	1467.52
	178	17.9	2.77978E-001	3.49643E-006	0.00000E+000	2.78003E-001	0.00000E+000	9	...........	1467.52
	179	18	2.78973E-001	3.50949E-006	0.00000E+000	2.79003E-001	0.00000E+000	9	...........	1467.52
	180	18.1	2.79964E-001	3.52391E-006	0.00000E+000	2.80003E-001	0.00000E+000	9	...........	1467.52
	181	18.2	2.80964E-001	3.54496E-006	0.00000E+000	2.81002E-001	0.00000E+000	9	...........	1467.84
	182	18.3	2.81973E-001	3.55998E-006	0.00000E+000	2.82002E-001	0.00000E+000	9	...........	1467.88
	183	18.4	2.82986E-001	3.57220E-006	0.00000E+000	2.83002E-001	0.00000E+000	9	...........	1467.88
	184	18.5	2.83991E-001	3.58764E-006	0.00000E+000	2.84001E-001	0.00000E+000	9	...........	1467.88
	185	18.6	2.84992E-001	3.60647E-006	0.00000E+000	2.85001E-001	0.00000E+000	9	...........	1467.88
	186	18.7	2.85979E-001	3.62105E-006	0.00000E+000	2.86001E-001	0.00000E+000	9	...........	1467.88
	187	18.8	2.86972E-001	3.64263E-006	0.00000E+000	2.87000E-001	0.00000E+000	9	...........	1467.88
	188	18.9	2.87980E-001	3.66036E-006	0.00000E+000	2.88000E-001	0.00000E+000	9	...........	1467.88
	189	19	2.88980E-001	3.67521E-006	0.00000E+000	2.89000E-001	0.00000E+000	9	...........	1467.88
	190	19.1	2.89975E-001	3.69261E-006	0.00000E+000	2.89999E-001	0.00000E+000	9	...........	1467.88
	191	19.2	2.90960E-001	3.70972E-006	0.00000E+000	2.90999E-001	0.00000E+000	9	...........	1467.56
	192	19.3	2.91961E-001	3.72161E-006	0.00000E+000	2.91999E-001	0.00000E+000	9	...........	1467.52
	193	19.4	2.92965E-001	3.73775E-006	0.00000E+000	2.92998E-001	0.00000E+000	9	...........	1467.52
	194	19.5	2.93964E-001	3.76029E-006	0.00000E+000	2.93998E-001	0.00000E+000	9	...........	1467.52
	195	19.6	2.94992E-001	3.77641E-006	0.00000E+000	2.94998E-001	0.00000E+000	9	...........	1467.52
	196	19.7	2.95987E-001	3.79115E-006	0.00000E+000	2.95997E-001	0.00000E+000	9	...........	1467.52
	197	19.8	2.96973E-001	3.80923E-006	0.00000E+000	2.96997E-001	0.00000E+000	9	...........	1467.52
	198	19.9	2.97977E-001	3.82869E-006	0.00000E+000	2.97996E-001	0.00000E+000	9	...........	1467.52
	199	20	2.98974E-001	3.84528E-006	0.00000E+000	2.98996E-001	0.00000E+000	9	...........	1467.52
	200	20.1	2.99977E-001	3.86349E-006	0.00000E+000	2.99996E-001	0.00000E+000	9	...........	1467.52
	201	20.2	2.98982E-001	3.40008E-006	0.00000E+000	2.98996E-001	0.00000E+000	9	...........	1467.52
	202	20.3	2.97985E-001	3.31336E-006	0.00000E+000	2.97996E-001	0.00000E+000	9	...........	1467.52
	203	20.4	2.96978E-001	3.24184E-006	0.00000E+000	2.96997E-001	0.00000E+000	9	...........	1467.52
	204	20.5	2.95993E-001	3.18232E-006	0.00000E+000	2.95997E-001	0.00000E+000	9	...........	1467.52
	205	20.6	2.94995E-001	3.13190E-006	0.00000E+000	2.94998E-001	0.00000E+000	9	...........	1467.52
	206	20.7	2.93967E-001	3.08734E-006	0.00000E+000	2.93998E-001	0.00000E+000	9	...........	1467.52
	207	20.8	2.92967E-001	3.03651E-006	0.00000E+000	2.92998E-001	0.00000E+000	9	...........	1467.52
	208	20.9	2.91974E-001	2.99095E-006	0.00000E+000	2.91999E-001	0.00000E+000	9	...........	1467.52
	209	21	2.90960E-001	2.94875E-006	0.00000E+000	2.90999E-001	0.00000E+000	9	...........	1467.52
	210	21.1	2.89979E-001	2.90241E-006	0.00000E+000	2.89999E-001	0.00000E+000	9	...........	1467.52
	211	21.2	2.88981E-001	2.86587E-006	0.00000E+000	2.89000E-001	0.00000E+000	9	...........	1467.44
	212	21.3	2.87987E-001	2.82715E-006	0.00000E+000	2.88000E-001	0.00000E+000	9	...........	1467.43
	213	21.4	2.86980E-001	2.79238E-006	0.00000E+000	2.87000E-001	0.00000E+000	9	...........	1467.43
	214	21.5	2.85988E-001	2.75311E-006	0.00000E+000	2.86001E-001	0.00000E+000	9	...........	1467.43
	215	21.6	2.84985E-001	2.71812E-006	0.00000E+000	2.85001E-001	0.00000E+000	9	...........	1467.43
	216	21.7	2.83992E-001	2.68191E-006	0.00000E+000	2.84001E-001	0.00000E+000	9	...........	1467.43
	217	21.8	2.82978E-001	2.65042E-006	0.00000E+000	2.83002E-001	0.00000E+000	9	...........	1467.43
	218	21.9	2.81979E-001	2.62118E-006	0.00000E+000	2.82002E-001	0.00000E+000	9	...........	1467.43
	219	22	2.80973E-001	2.59151E-006	0.00000E+000	2.81002E-001	0.00000E+000	9	...........	1467.43
	220	22.1	2.79968E-001	2.55699E-006	0.00000E+000	2.80003E-001	0.00000E+000	9	...........	1467.43
	221	22.2	2.78962E-001	2.52856E-006	0.00000E+000	2.79003E-001	0.00000E+000	9	...........	1467.67
	222	22.3	2.77982E-001	2.50137E-006	0.00000E+000	2.78003E-001	0.00000E+000	9	...........	1467.70
	223	22.4	2.76988E-001	2.46629E-006	0.00000E+000	2.77004E-001	0.00000E+000	9	...........	1467.70
	224	22.5	2.75986E-001	2.43928E-006	0.00000E+000	2.76004E-001	0.00000E+000	9	...........	1467.70
	225	22.6	2.74977E-001	2.41200E-006	0.00000E+000	2.75004E-001	0.00000E+000	9	...........	1467.70
	226	22.7	2.73975E-001	2.38956E-006	0.00000E+000	2.74005E-001	0.00000E+000	9	...........	1467.70
	227	22.8	2.72987E-001	2.35957E-006	0.00000E+000	2.73005E-001	0.00000E+000	9	...........	1467.70
	228	22.9	2.71986E-001	2.33399E-006	0.00000E+000	2.72006E-001	0.00000E+000	9	...........	1467.70
	229	23	2.70992E-001	2.30609E-006	0.00000E+000	2.71006E-001	0.00000E+000	9	...........	1467.70
	230	23.1	2.70000E-001	2.28183E-006	0.00000E+000	2.70006E-001	0.00000E+000	9	...........	1467.70
	231	23.2	2.68983E-001	2.25267E-006	0.00000E+000	2.68994E-001	0.00000E+000	9	...........	1467.54
	232	23.3	2.67949E-001	2.23215E-006	0.00000E+000	2.67994E-001	0.00000E+000	9	...........	1467.52
	233	23.4	2.66955E-001	2.20639E-006	0.00000E+000	2.66995E-001	0.00000E+000	9	...........	1467.52
	234	23.5	2.65964E-001	2.18139E-006	0.00000E+000	2.65995E-001	0.00000E+000	9	...........	1467.52
	235	23.6	2.64968E-001	2.15168E-006	0.00000E+000	2.64995E-001	0.00000E+000	9	...........	1467.52
	236	23.7	2.63965E-001	2.12789E-006	0.00000E+000	2.63996E-001	0.00000E+000	9	...........	1467.52
	237	23.8	2.62971E-001	2.10871E-006	0.00000E+000	2.62996E-001	0.00000E+000	9	...........	1467.52
	238	23.9	2.61969E-001	2.08526E-006	0.00000E+000	2.61997E-001	0.00000E+000	9	...........	1467.52
	239	24	2.60972E-001	2.06400E-006	0.00000E+000	2.60997E-001	0.00000E+000	9	...........	1467.52
	240	24.1	2.59971E-001	2.04200E-006	0.00000E+000	2.59997E-001	0.00000E+000	9	...........	1467.52
	241	24.2	2.58976E-001	2.01816E-006	0.00000E+000	2.58998E-001	0.00000E+000	9	...........	1467.52
	242	24.3	2.57979E-001	1.99538E-006	0.00000E+000	2.57998E-001	0.00000E+000	9	...........	1467.52
	243	24.4	2.56983E-001	1.97675E-006	0.00000E+000	2.56998E-001	0.00000E+000	9	...........	1467.52
	244	24.5	2.55975E-001	1.95272E-006	0.00000E+000	2.55999E-001	0.00000E+000	9	...........	1467.52
	245	24.6	2.54961E-001	1.92960E-006	0.00000E+000	2.54999E-001	0.00000E+000	9	...........	1467.52
	246	24.7	2.53957E-001	1.90530E-006	0.00000E+000	2.53999E-001	0.00000E+000	9	...........	1467.52
	247	24.8	2.52963E-001	1.88875E-006	0.00000E+000	2.53000E-001	0.00000E+000	9	...........	1467.52
	248	24.9	2.51968E-001	1.86730E-006	0.00000E+000	2.52000E-001	0.00000E+000	9	...........	1467.52
	249	25	2.50977E-001	1.84536E-006	0.00000E+000	2.51000E-001	0.00000E+000	9	...........	1467.52
	250	25.1	2.49981E-001	1.82084E-006	0.00000E+000	2.50001E-001	0.00000E+000	9	...........	1467.52
	251	25.2	2.48975E-001	1.79886E-006	0.00000E+000	2.49001E-001	0.00000E+000	9	...........	1467.93
	252	25.3	2.47975E-001	1.77734E-006	0.00000E+000	2.48001E-001	0.00000E+000	9	...........	1467.97
	253	25.4	2.46983E-001	1.75851E-006	0.00000E+000	2.47002E-001	0.00000E+000	9	...........	1467.97
	254	25.5	2.45986E-001	1.73792E-006	0.00000E+000	2.46002E-001	0.00000E+000	9	...........	1467.97
	255	25.6	2.44994E-001	1.71383E-006	0.00000E+000	2.45002E-001	0.00000E+000	9	...........	1467.97
	256	25.7	2.43999E-001	1.69551E-006	0.00000E+000	2.44003E-001	0.00000E+000	9	...........	1467.97
	257	25.8	2.42983E-001	1.67836E-006	0.00000E+000	2.43003E-001	0.00000E+000	9	...........	1467.97
	258	25.9	2.41975E-001	1.65692E-006	0.00000E+000	2.42004E-001	0.00000E+000	9	...........	1467.97
	259	26	2.40969E-001	1.63857E-006	0.00000E+000	2.41004E-001	0.00000E+000	9	...........	1467.97
	260	26.1	2.39981E-001	1.61604E-006	0.00000E+000	2.40004E-001	0.00000E+000	9	...........	1467.97
	261	26.2	2.38977E-001	1.59383E-006	0.00000E+000	2.39005E-001	0.00000E+000	9	...........	1467.73
	262	26.3	2.37978E-001	1.57932E-006	0.00000E+000	2.38005E-001	0.00000E+000	9	...........	1467.70
	263	26.4	2.36993E-001	1.55788E-006	0.00000E+000	2.37005E-001	0.00000E+000	9	...........	1467.70
	264	26.5	2.35987E-001	1.53617E-006	0.00000E+000	2.36006E-001	0.00000E+000	9	...........	1467.70
	265	26.6	2.34988E-001	1.51631E-006	0.00000E+000	2.35006E-001	0.00000E+000	9	...........	1467.70
	266	26.7	2.33984E-001	1.49425E-006	0.00000E+000	2.33994E-001	0.00000E+000	9	...........	1467.70
	267	26.8	2.32980E-001	1.47737E-006	0.00000E+000	2.32994E-001	0.00000E+000	9	...........	1467.70
	268	26.9	2.31982E-001	1.45561E-006	0.00000E+000	2.31994E-001	0.00000E+000	9	...........	1467.70
	269	27	2.30978E-001	1.43303E-006	0.00000E+000	2.30995E-001	0.00000E+000	9	...........	1467.70
	270	27.1	2.29972E-001	1.41644E-006	0.00000E+000	2.29995E-001	0.00000E+000	9	...........	1467.70
	271	27.2	2.28976E-001	1.39588E-006	0.00000E+000	2.28996E-001	0.00000E+000	9	...........	1467.54
	272	27.3	2.27966E-001	1.37688E-006	0.00000E+000	2.27996E-001	0.00000E+000	9	...........	1467.52
	273	27.4	2.26971E-001	1.36142E-006	0.00000E+000	2.26996E-001	0.00000E+000	9	...........	1467.52
	274	27.5	2.25969E-001	1.34132E-006	0.00000E+000	2.25997E-001	0.00000E+000	9	...........	1467.52
	275	27.6	2.24973E-001	1.32101E-006	0.00000E+000	2.24997E-001	0.00000E+000	9	...........	1467.52
	276	27.7	2.23983E-001	1.30130E-006	0.00000E+000	2.23997E-001	0.00000E+000	9	...........	1467.52
	277	27.8	2.22986E-001	1.28359E-006	0.00000E+000	2.22998E-001	0.00000E+000	9	...........	1467.52
	278	27.9	2.21981E-001	1.26067E-006	0.00000E+000	2.21998E-001	0.00000E+000	9	...........	1467.52
	279	28	2.20980E-001	1.24571E-006	0.00000E+000	2.20998E-001	0.00000E+000	9	...........	1467.52
	280	28.1	2.19978E-001	1.22212E-006	0.00000E+000	2.19999E-001	0.00000E+000	9	...........	1467.52
	281	28.2	2.18977E-001	1.19291E-006	0.00000E+000	2.18999E-001	0.00000E+000	9	...........	1467.52
	282	28.3	2.17998E-001	1.17544E-006	0.00000E+000	2.17999E-001	0.00000E+000	9	...........	1467.52
	283	28.4	2.16975E-001	1.15785E-006	0.00000E+000	2.17000E-001	0.00000E+000	9	...........	1467.52
	284	28.5	2.15971E-001	1.14078E-006	0.00000E+000	2.16000E-001	0.00000E+000	9	...........	1467.52
	285	28.6	2.14970E-001	1.12098E-006	0.00000E+000	2.15000E-001	0.00000E+000	9	...........	1467.52
	286	28.7	2.13965E-001	1.10114E-006	0.00000E+000	2.14001E-001	0.00000E+000	9	...........	1467.52
	287	28.8	2.12974E-001	1.08382E-006	0.00000E+000	2.13001E-001	0.00000E+000	9	...........	1467.52
	288	28.9	2.11986E-001	1.06731E-006	0.00000E+000	2.12001E-001	0.00000E+000	9	...........	1467.52
	289	29	2.10975E-001	1.04558E-006	0.00000E+000	2.11002E-001	0.00000E+000	9	...........	1467.52
	290	29.1	2.09981E-001	1.02351E-006	0.00000E+000	2.10002E-001	0.00000E+000	9	...........	1467.52
	291	29.2	2.08982E-001	1.00169E-006	0.00000E+000	2.09003E-001	0.00000E+000	9	...........	1467.93
	292	29.3	2.07985E-001	9.85868E-007	0.00000E+000	2.08003E-001	0.00000E+000	9	...........	1467.97
	293	29.4	2.06983E-001	9.68259E-007	0.00000E+000	2.07003E-001	0.00000E+000	9	...........	1467.97
	294	29.5	2.05993E-001	9.47050E-007	0.00000E+000	2.06004E-001	0.00000E+000	9	...........	1467.97
	295	29.6	2.04998E-001	9.27502E-007	0.00000E+000	2.05004E-001	0.00000E+000	9	...........	1467.97
	296	29.7	2.03987E-001	9.05620E-007	0.00000E+000	2.04004E-001	0.00000E+000	9	...........	1467.97
	297	29.8	2.02988E-001	8.88584E-007	0.00000E+000	2.03005E-001	0.00000E+000	9	...........	1467.97
	298	29.9	2.01985E-001	8.70386E-007	0.00000E+000	2.02005E-001	0.00000E+000	9	...........	1467.97
	299	30	2.00984E-001	8.47771E-007	0.00000E+000	2.01005E-001	0.00000E+000	9	...........	1467.97
	300	30.1	1.99993E-001	8.26779E-007	0.00000E+000	2.00006E-001	0.00000E+000	9	...........	1467.97
	301	30.2	1.99006E-001	8.09142E-007	0.00000E+000	1.99006E-001	0.00000E+000	9	...........	1467.65
	302	30.3	1.97980E-001	7.86494E-007	0.00000E+000	1.97994E-001	0.00000E+000	9	...........	1467.61
	303	30.4	1.96983E-001	7.72308E-007	0.00000E+000	1.96994E-001	0.00000E+000	9	...........	1467.61
	304	30.5	1.95994E-001	7.49481E-007	0.00000E+000	1.95995E-001	0.00000E+000	9	...........	1467.61
	305	30.6	1.94996E-001	7.28178E-007	0.00000E+000	1.94995E-001	0.00000E+000	9	...........	1467.61
	306	30.7	1.94002E-001	7.12203E-007	0.00000E+000	1.93995E-001	0.00000E+000	9	...........	1467.61
	307	30.8	1.92999E-001	6.95294E-007	0.00000E+000	1.92996E-001	0.00000E+000	9	...........	1467.61
	308	30.9	1.92010E-001	6.80041E-007	0.00000E+000	1.91996E-001	0.00000E+000	9	...........	1467.61
	309	31	1.90973E-001	6.56059E-007	0.00000E+000	1.90996E-001	0.00000E+000	9	...........	1467.61
	310	31.1	1.89972E-001	6.34939E-007	0.00000E+000	1.89997E-001	0.00000E+000	9	...........	1467.61
	311	31.2	1.88983E-001	6.18708E-007	0.00000E+000	1.88997E-001	0.00000E+000	9	...........	1467.53
	312	31.3	1.87995E-001	6.02466E-007	0.00000E+000	1.87997E-001	0.00000E+000	9	...........	1467.52
	313	31.4	1.86993E-001	5.81129E-007	0.00000E+000	1.86998E-001	0.00000E+000	9	...........	1467.52
	314	31.5	1.85989E-001	5.64154E-007	0.00000E+000	1.85998E-001	0.00000E+000	9	...........	1467.52
	315	31.6	1.84990E-001	5.41061E-007	0.00000E+000	1.84998E-001	0.00000E+000	9	...........	1467.52
	316	31.7	1.83996E-001	5.22824E-007	0.00000E+000	1.83999E-001	0.00000E+000	9	...........	1467.52
	317	31.8	1.82990E-001	5.04771E-007	0.00000E+000	1.82999E-001	0.00000E+000	9	...........	1467.52
	318	31.9	1.82002E-001	4.88529E-007	0.00000E+000	1.81999E-001	0.00000E+000	9	...........	1467.52
	319	32	1.81000E-001	4.71404E-007	0.00000E+000	1.81000E-001	0.00000E+000	9	...........	1467.52
	320	32.1	1.79984E-001	4.50450E-007	0.00000E+000	1.80000E-001	0.00000E+000	9	...........	1467.52
	321	32.2	1.78974E-001	4.32452E-007	0.00000E+000	1.79000E-001	0.00000E+000	9	...........	1467.52
	322	32.3	1.77970E-001	4.13455E-007	0.00000E+000	1.78001E-001	0.00000E+000	9	...........	1467.52
	323	32.4	1.76979E-001	3.98457E-007	0.00000E+000	1.77001E-001	0.00000E+000	9	...........	1467.52
	324	32.5	1.75999E-001	3.81732E-007	0.00000E+000	1.76002E-001	0.00000E+000	9	...........	1467.52
	325	32.6	1.74992E-001	3.63823E-007	0.00000E+000	1.75002E-001	0.00000E+000	9	...........	1467.52
	326	32.7	1.73982E-001	3.50921E-007	0.00000E+000	1.74002E-001	0.00000E+000	9	...........	1467.52
	327	32.8	1.72981E-001	3.33946E-007	0.00000E+000	1.73003E-001	0.00000E+000	9	...........	1467.52
	328	32.9	1.71987E-001	3.17465E-007	0.00000E+000	1.72003E-001	0.00000E+000	9	...........	1467.52
	329	33	1.70998E-001	2.96711E-007	0.00000E+000	1.71003E-001	0.00000E+000	9	...........	1467.52
	330	33.1	1.70006E-001	2.79942E-007	0.00000E+000	1.70004E-001	0.00000E+000	9	...........	1467.52
	331	33.2	1.68997E-001	2.63361E-007	0.00000E+000	1.69004E-001	0.00000E+000	9	...........	1467.93
	332	33.3	1.67999E-001	2.41468E-007	0.00000E+000	1.68004E-001	0.00000E+000	9	...........	1467.97
	333	33.4	1.67005E-001	2.29805E-007	0.00000E+000	1.67005E-001	0.00000E+000	9	...........	1467.97
	334	33.5	1.65976E-001	2.13663E-007	0.00000E+000	1.66005E-001	0.00000E+000	9	...........	1467.97
	335	33.6	1.64975E-001	1.94004E-007	0.00000E+000	1.65005E-001	0.00000E+000	9	...........	1467.97
	336	33.7	1.63992E-001	1.77640E-007	0.00000E+000	1.64006E-001	0.00000E+000	9	...........	1467.97
	337	33.8	1.62986E-001	1.62282E-007	0.00000E+000	1.63006E-001	0.00000E+000	9	...........	1467.97
	338	33.9	1.61974E-001	1.42623E-007	0.00000E+000	1.61994E-001	0.00000E+000	9	...........	1467.97
	339	34	1.60977E-001	1.23692E-007	0.00000E+000	1.60994E-001	0.00000E+000	9	...........	1467.97
	340	34.1	1.59980E-001	1.06489E-007	0.00000E+000	1.59995E-001	0.00000E+000	9	...........	1467.97
	341	34.2	1.58972E-001	8.96633E-008	0.00000E+000	1.58995E-001	0.00000E+000	9	...........	1467.56
	342	34.3	1.57990E-001	7.27936E-008	0.00000E+000	1.57995E-001	0.00000E+000	9	...........	1467.52
	343	34.4	1.56998E-001	4.81447E-008	0.00000E+000	1.56996E-001	0.00000E+000	9	...........	1467.52
	344	34.5	1.55988E-001	2.46072E-008	0.00000E+000	1.55996E-001	0.00000E+000	9	...........	1467.52
	345	34.6	1.54990E-001	1.08436E-008	0.00000E+000	1.54996E-001	0.00000E+000	9	...........	1467.52
	346	34.7	1.53979E-001	-5.88161E-009	0.00000E+000	1.53997E-001	0.00000E+000	9	...........	1467.52
	347	34.8	1.52968E-001	-2.18956E-008	0.00000E+000	1.52997E-001	0.00000E+000	9	...........	1467.52
	348	34.9	1.51967E-001	-3.71872E-008	0.00000E+000	1.51997E-001	0.00000E+000	9	...........	1467.52
	349	35	1.50973E-001	-5.58183E-008	0.00000E+000	1.50998E-001	0.00000E+000	9	...........	1467.52
	350	35.1	1.49977E-001	-7.05043E-008	0.00000E+000	1.49998E-001	0.00000E+000	9	...........	1467.52
	351	35.2	1.48980E-001	-8.39734E-008	0.00000E+000	1.48998E-001	0.00000E+000	9	...........	1467.52
	352	35.3	1.47986E-001	-9.98318E-008	0.00000E+000	1.47999E-001	0.00000E+000	9	...........	1467.52
	353	35.4	1.46992E-001	-1.17846E-007	0.00000E+000	1.46999E-001	0.00000E+000	9	...........	1467.52
	354	35.5	1.45985E-001	-1.29843E-007	0.00000E+000	1.46000E-001	0.00000E+000	9	...........	1467.52
	355	35.6	1.44984E-001	-1.44951E-007	0.00000E+000	1.45000E-001	0.00000E+000	9	...........	1467.52
	356	35.7	1.43992E-001	-1.60420E-007	0.00000E+000	1.44000E-001	0.00000E+000	9	...........	1467.52
	357	35.8	1.42997E-001	-1.76701E-007	0.00000E+000	1.43001E-001	0.00000E+000	9	...........	1467.52
	358	35.9	1.41999E-001	-1.95349E-007	0.00000E+000	1.42001E-001	0.00000E+000	9	...........	1467.52
	359	36	1.41005E-001	-2.11229E-007	0.00000E+000	1.41001E-001	0.00000E+000	9	...........	1467.52
	360	36.1	1.39981E-001	-2.26860E-007	0.00000E+000	1.40002E-001	0.00000E+000	9	...........	1467.52
	361	36.2	1.38998E-001	-2.37412E-007	0.00000E+000	1.39002E-001	0.00000E+000	9	...........	1467.52
	362	36.3	1.37997E-001	-2.50825E-007	0.00000E+000	1.38002E-001	0.00000E+000	9	...........	1467.52
	363	36.4	1.36990E-001	-2.69579E-007	0.00000E+000	1.37003E-001	0.00000E+000	9	...........	1467.52
	364	36.5	1.35994E-001	-2.82720E-007	0.00000E+000	1.36003E-001	0.00000E+000	9	...........	1467.52
	365	36.6	1.34991E-001	-2.99651E-007	0.00000E+000	1.35003E-001	0.00000E+000	9	...........	1467.52
	366	36.7	1.33988E-001	-3.21638E-007	0.00000E+000	1.34004E-001	0.00000E+000	9	...........	1467.52
	367	36.8	1.32999E-001	-3.31773E-007	0.00000E+000	1.33004E-001	0.00000E+000	9	...........	1467.52
	368	36.9	1.32012E-001	-3.50049E-007	0.00000E+000	1.32004E-001	0.00000E+000	9	...........	1467.52
	369	37	1.31012E-001	-3.63785E-007	0.00000E+000	1.31005E-001	0.00000E+000	9	...........	1467.52
	370	37.1	1.30003E-001	-3.77104E-007	0.00000E+000	1.30005E-001	0.00000E+000	9	...........	1467.52
	371	37.2	1.28989E-001	-3.91462E-007	0.00000E+000	1.29005E-001	0.00000E+000	9	...........	1467.85
	372	37.3	1.27991E-001	-4.03875E-007	0.00000E+000	1.28006E-001	0.00000E+000	9	...........	1467.88
	373	37.4	1.26982E-001	-4.19156E-007	0.00000E+000	1.27006E-001	0.00000E+000	9	...........	1467.88
	374	37.5	1.25979E-001	-4.34870E-007	0.00000E+000	1.25994E-001	0.00000E+000	9	...........	1467.88
	375	37.6	1.24989E-001	-4.48372E-007	0.00000E+000	1.24994E-001	0.00000E+000	9	...........	1467.88
	376	37.7	1.23984E-001	-4.66703E-007	0.00000E+000	1.23995E-001	0.00000E+000	9	...........	1467.88
	377	37.8	1.22981E-001	-4.84712E-007	0.00000E+000	1.22995E-001	0.00000E+000	9	...........	1467.88
	378	37.9	1.21992E-001	-4.95764E-007	0.00000E+000	1.21995E-001	0.00000E+000	9	...........	1467.88
	379	38	1.20989E-001	-5.06388E-007	0.00000E+000	1.20996E-001	0.00000E+000	9	...........	1467.88
	380	38.1	1.19993E-001	-5.19290E-007	0.00000E+000	1.19996E-001	0.00000E+000	9	...........	1467.88
	381	38.2	1.18992E-001	-5.36816E-007	0.00000E+000	1.18996E-001	0.00000E+000	9	...........	1467.55
	382	38.3	1.17981E-001	-5.47934E-007	0.00000E+000	1.17997E-001	0.00000E+000	9	...........	1467.52
	383	38.4	1.16994E-001	-5.62898E-007	0.00000E+000	1.16997E-001	0.00000E+000	9	...........	1467.52
	384	38.5	1.15998E-001	-5.75589E-007	0.00000E+000	1.15997E-001	0.00000E+000	9	...........	1467.52
	385	38.6	1.14988E-001	-5.84546E-007	0.00000E+000	1.14998E-001	0.00000E+000	9	...........	1467.52
	386	38.7	1.13971E-001	-6.01816E-007	0.00000E+000	1.13998E-001	0.00000E+000	9	...........	1467.52
	387	38.8	1.12970E-001	-6.15991E-007	0.00000E+000	1.12999E-001	0.00000E+000	9	...........	1467.52
	388	38.9	1.11983E-001	-6.29738E-007	0.00000E+000	1.11999E-001	0.00000E+000	9	...........	1467.52
	389	39	1.10985E-001	-6.47558E-007	0.00000E+000	1.10999E-001	0.00000E+000	9	...........	1467.52
	390	39.1	1.09989E-001	-6.59388E-007	0.00000E+000	1.10000E-001	0.00000E+000	9	...........	1467.52
[...]
	1002	100.3	2.97983E-001	2.22493E-006	0.00000E+000	2.97996E-001	0.00000E+000	9	...........	1467.61
	1003	100.4	2.96974E-001	2.17016E-006	0.00000E+000	2.96997E-001	0.00000E+000	9	...........	1467.61
	1004	100.5	2.95984E-001	2.12618E-006	0.00000E+000	2.95997E-001	0.00000E+000	9	...........	1467.61
	1005	100.6	2.94998E-001	2.08020E-006	0.00000E+000	2.94998E-001	0.00000E+000	9	...........	1467.61
	1006	100.7	2.93967E-001	2.04379E-006	0.00000E+000	2.93998E-001	0.00000E+000	9	...........	1467.61
	1007	100.8	2.92970E-001	2.00993E-006	0.00000E+000	2.92998E-001	0.00000E+000	9	...........	1467.61
	1008	100.9	2.91977E-001	1.97906E-006	0.00000E+000	2.91999E-001	0.00000E+000	9	...........	1467.61
	1009	101	2.90965E-001	1.94803E-006	0.00000E+000	2.90999E-001	0.00000E+000	9	...........	1467.61
	1010	101.1	2.89987E-001	1.91869E-006	0.00000E+000	2.89999E-001	0.00000E+000	9	...........	1467.61
	1011	101.2	2.88992E-001	1.88946E-006	0.00000E+000	2.89000E-001	0.00000E+000	9	...........	1467.61
	1012	101.3	2.87992E-001	1.86004E-006	0.00000E+000	2.88000E-001	0.00000E+000	9	...........	1467.61
	1013	101.4	2.86986E-001	1.83156E-006	0.00000E+000	2.87000E-001	0.00000E+000	9	...........	1467.61
	1014	101.5	2.85979E-001	1.80836E-006	0.00000E+000	2.86001E-001	0.00000E+000	9	...........	1467.61
	1015	101.6	2.84983E-001	1.77997E-006	0.00000E+000	2.85001E-001	0.00000E+000	9	...........	1467.61
	1016	101.7	2.83992E-001	1.75356E-006	0.00000E+000	2.84001E-001	0.00000E+000	9	...........	1467.61
	1017	101.8	2.82980E-001	1.72987E-006	0.00000E+000	2.83002E-001	0.00000E+000	9	...........	1467.61
	1018	101.9	2.81979E-001	1.70967E-006	0.00000E+000	2.82002E-001	0.00000E+000	9	...........	1467.61
	1019	102	2.80977E-001	1.68144E-006	0.00000E+000	2.81002E-001	0.00000E+000	9	...........	1467.61
	1020	102.1	2.79980E-001	1.65797E-006	0.00000E+000	2.80003E-001	0.00000E+000	9	...........	1467.62
	1021	102.2	2.78979E-001	1.63253E-006	0.00000E+000	2.79003E-001	0.00000E+000	9	...........	1467.97
	1022	102.3	2.77984E-001	1.60876E-006	0.00000E+000	2.78003E-001	0.00000E+000	9	...........	1467.97
	1023	102.4	2.76983E-001	1.58942E-006	0.00000E+000	2.77004E-001	0.00000E+000	9	...........	1467.97
	1024	102.5	2.75988E-001	1.56565E-006	0.00000E+000	2.76004E-001	0.00000E+000	9	...........	1467.97
	1025	102.6	2.74974E-001	1.54782E-006	0.00000E+000	2.75004E-001	0.00000E+000	9	...........	1467.97
	1026	102.7	2.73979E-001	1.52368E-006	0.00000E+000	2.74005E-001	0.00000E+000	9	...........	1467.97
	1027	102.8	2.72989E-001	1.50651E-006	0.00000E+000	2.73005E-001	0.00000E+000	9	...........	1467.97
	1028	102.9	2.71991E-001	1.48994E-006	0.00000E+000	2.72006E-001	0.00000E+000	9	...........	1467.97
	1029	103	2.71001E-001	1.46965E-006	0.00000E+000	2.71006E-001	0.00000E+000	9	...........	1467.97
	1030	103.1	2.70001E-001	1.44700E-006	0.00000E+000	2.70006E-001	0.00000E+000	9	...........	1467.97
	1031	103.2	2.68994E-001	1.42142E-006	0.00000E+000	2.68994E-001	0.00000E+000	9	...........	1467.61
	1032	103.3	2.67954E-001	1.40729E-006	0.00000E+000	2.67994E-001	0.00000E+000	9	...........	1467.61
	1033	103.4	2.66959E-001	1.39050E-006	0.00000E+000	2.66995E-001	0.00000E+000	9	...........	1467.61
	1034	103.5	2.65971E-001	1.36811E-006	0.00000E+000	2.65995E-001	0.00000E+000	9	...........	1467.61
	1035	103.6	2.64968E-001	1.34981E-006	0.00000E+000	2.64995E-001	0.00000E+000	9	...........	1467.61
	1036	103.7	2.63973E-001	1.32969E-006	0.00000E+000	2.63996E-001	0.00000E+000	9	...........	1467.61
	1037	103.8	2.62978E-001	1.31097E-006	0.00000E+000	2.62996E-001	0.00000E+000	9	...........	1467.61
	1038	103.9	2.61974E-001	1.28823E-006	0.00000E+000	2.61997E-001	0.00000E+000	9	...........	1467.61
	1039	104	2.60979E-001	1.26921E-006	0.00000E+000	2.60997E-001	0.00000E+000	9	...........	1467.61
	1040	104.1	2.59970E-001	1.25385E-006	0.00000E+000	2.59997E-001	0.00000E+000	9	...........	1467.61
	1041	104.2	2.58967E-001	1.23660E-006	0.00000E+000	2.58998E-001	0.00000E+000	9	...........	1467.61
	1042	104.3	2.57970E-001	1.21778E-006	0.00000E+000	2.57998E-001	0.00000E+000	9	...........	1467.61
	1043	104.4	2.56990E-001	1.20037E-006	0.00000E+000	2.56998E-001	0.00000E+000	9	...........	1467.61
	1044	104.5	2.55982E-001	1.18384E-006	0.00000E+000	2.55999E-001	0.00000E+000	9	...........	1467.61
	1045	104.6	2.54966E-001	1.16690E-006	0.00000E+000	2.54999E-001	0.00000E+000	9	...........	1467.61
	1046	104.7	2.53963E-001	1.14784E-006	0.00000E+000	2.53999E-001	0.00000E+000	9	...........	1467.61
	1047	104.8	2.52970E-001	1.13013E-006	0.00000E+000	2.53000E-001	0.00000E+000	9	...........	1467.61
	1048	104.9	2.51977E-001	1.11751E-006	0.00000E+000	2.52000E-001	0.00000E+000	9	...........	1467.61
	1049	105	2.50980E-001	1.09941E-006	0.00000E+000	2.51000E-001	0.00000E+000	9	...........	1467.61
	1050	105.1	2.49981E-001	1.08310E-006	0.00000E+000	2.50001E-001	0.00000E+000	9	...........	1467.61
	1051	105.2	2.48976E-001	1.17013E-006	0.00000E+000	2.49001E-001	0.00000E+000	9	...........	1467.61
	1052	105.3	2.47977E-001	1.15035E-006	0.00000E+000	2.48001E-001	0.00000E+000	9	...........	1467.61
	1053	105.4	2.46976E-001	1.12729E-006	0.00000E+000	2.47002E-001	0.00000E+000	9	...........	1467.61
	1054	105.5	2.45985E-001	1.10713E-006	0.00000E+000	2.46002E-001	0.00000E+000	9	...........	1467.61
	1055	105.6	2.44992E-001	1.08639E-006	0.00000E+000	2.45002E-001	0.00000E+000	9	...........	1467.61
	1056	105.7	2.43996E-001	1.06359E-006	0.00000E+000	2.44003E-001	0.00000E+000	9	...........	1467.61
	1057	105.8	2.42987E-001	1.04757E-006	0.00000E+000	2.43003E-001	0.00000E+000	9	...........	1467.61
	1058	105.9	2.41977E-001	1.02850E-006	0.00000E+000	2.42004E-001	0.00000E+000	9	...........	1467.61
	1059	106	2.40982E-001	1.00547E-006	0.00000E+000	2.41004E-001	0.00000E+000	9	...........	1467.61
	1060	106.1	2.39984E-001	9.86068E-007	0.00000E+000	2.40004E-001	0.00000E+000	9	...........	1467.62
	1061	106.2	2.38978E-001	9.73710E-007	0.00000E+000	2.39005E-001	0.00000E+000	9	...........	1467.88
	1062	106.3	2.37983E-001	9.57313E-007	0.00000E+000	2.38005E-001	0.00000E+000	9	...........	1467.88
	1063	106.4	2.36984E-001	9.36276E-007	0.00000E+000	2.37005E-001	0.00000E+000	9	...........	1467.88
	1064	106.5	2.35981E-001	9.15594E-007	0.00000E+000	2.36006E-001	0.00000E+000	9	...........	1467.88
	1065	106.6	2.34985E-001	8.97136E-007	0.00000E+000	2.35006E-001	0.00000E+000	9	...........	1467.88
	1066	106.7	2.33981E-001	8.79188E-007	0.00000E+000	2.33994E-001	0.00000E+000	9	...........	1467.88
	1067	106.8	2.32982E-001	8.67063E-007	0.00000E+000	2.32994E-001	0.00000E+000	9	...........	1467.88
	1068	106.9	2.31993E-001	8.47732E-007	0.00000E+000	2.31994E-001	0.00000E+000	9	...........	1467.88
	1069	107	2.30984E-001	8.27645E-007	0.00000E+000	2.30995E-001	0.00000E+000	9	...........	1467.88
	1070	107.1	2.29962E-001	8.12570E-007	0.00000E+000	2.29995E-001	0.00000E+000	9	...........	1467.87
	1071	107.2	2.28971E-001	7.94289E-007	0.00000E+000	2.28996E-001	0.00000E+000	9	...........	1467.61
	1072	107.3	2.27973E-001	7.76947E-007	0.00000E+000	2.27996E-001	0.00000E+000	9	...........	1467.61
	1073	107.4	2.26963E-001	7.61256E-007	0.00000E+000	2.26996E-001	0.00000E+000	9	...........	1467.61
	1074	107.5	2.25969E-001	7.43930E-007	0.00000E+000	2.25997E-001	0.00000E+000	9	...........	1467.61
	1075	107.6	2.24974E-001	7.22054E-007	0.00000E+000	2.24997E-001	0.00000E+000	9	...........	1467.61
	1076	107.7	2.23986E-001	7.04095E-007	0.00000E+000	2.23997E-001	0.00000E+000	9	...........	1467.61
	1077	107.8	2.22973E-001	6.87848E-007	0.00000E+000	2.22998E-001	0.00000E+000	9	...........	1467.61
	1078	107.9	2.21979E-001	6.68867E-007	0.00000E+000	2.21998E-001	0.00000E+000	9	...........	1467.61
	1079	108	2.20991E-001	6.50341E-007	0.00000E+000	2.20998E-001	0.00000E+000	9	...........	1467.61
	1080	108.1	2.19983E-001	6.30993E-007	0.00000E+000	2.19999E-001	0.00000E+000	9	...........	1467.61
	1081	108.2	2.18980E-001	6.15958E-007	0.00000E+000	2.18999E-001	0.00000E+000	9	...........	1467.61
	1082	108.3	2.17997E-001	5.95415E-007	0.00000E+000	2.17999E-001	0.00000E+000	9	...........	1467.61
	1083	108.4	2.16969E-001	5.82374E-007	0.00000E+000	2.17000E-001	0.00000E+000	9	...........	1467.61
	1084	108.5	2.15972E-001	5.63815E-007	0.00000E+000	2.16000E-001	0.00000E+000	9	...........	1467.61
	1085	108.6	2.14975E-001	5.48890E-007	0.00000E+000	2.15000E-001	0.00000E+000	9	...........	1467.61
	1086	108.7	2.13967E-001	5.29214E-007	0.00000E+000	2.14001E-001	0.00000E+000	9	...........	1467.61
	1087	108.8	2.12975E-001	5.11350E-007	0.00000E+000	2.13001E-001	0.00000E+000	9	...........	1467.61
	1088	108.9	2.11983E-001	4.89174E-007	0.00000E+000	2.12001E-001	0.00000E+000	9	...........	1467.61
	1089	109	2.10979E-001	4.72015E-007	0.00000E+000	2.11002E-001	0.00000E+000	9	...........	1467.61
	1090	109.1	2.09984E-001	4.50861E-007	0.00000E+000	2.10002E-001	0.00000E+000	9	...........	1467.61
	1091	109.2	2.08989E-001	4.35942E-007	0.00000E+000	2.09003E-001	0.00000E+000	9	...........	1467.61
	1092	109.3	2.07990E-001	4.17761E-007	0.00000E+000	2.08003E-001	0.00000E+000	9	...........	1467.61
	1093	109.4	2.06986E-001	3.97796E-007	0.00000E+000	2.07003E-001	0.00000E+000	9	...........	1467.61
	1094	109.5	2.05998E-001	3.78193E-007	0.00000E+000	2.06004E-001	0.00000E+000	9	...........	1467.61
	1095	109.6	2.04995E-001	3.56744E-007	0.00000E+000	2.05004E-001	0.00000E+000	9	...........	1467.61
	1096	109.7	2.03981E-001	3.38686E-007	0.00000E+000	2.04004E-001	0.00000E+000	9	...........	1467.61
	1097	109.8	2.02978E-001	3.21049E-007	0.00000E+000	2.03005E-001	0.00000E+000	9	...........	1467.61
	1098	109.9	2.01985E-001	3.04491E-007	0.00000E+000	2.02005E-001	0.00000E+000	9	...........	1467.61
	1099	110	2.00977E-001	2.85043E-007	0.00000E+000	2.01005E-001	0.00000E+000	9	...........	1467.61
	1100	110.1	1.99994E-001	2.69779E-007	0.00000E+000	2.00006E-001	0.00000E+000	9	...........	1467.62
	1101	110.2	1.99004E-001	2.47058E-007	0.00000E+000	1.99006E-001	0.00000E+000	9	...........	1467.79
	1102	110.3	1.97990E-001	2.24315E-007	0.00000E+000	1.97994E-001	0.00000E+000	9	...........	1467.79
	1103	110.4	1.96987E-001	2.11963E-007	0.00000E+000	1.96994E-001	0.00000E+000	9	...........	1467.79
	1104	110.5	1.95991E-001	1.91565E-007	0.00000E+000	1.95995E-001	0.00000E+000	9	...........	1467.79
	1105	110.6	1.94987E-001	1.72339E-007	0.00000E+000	1.94995E-001	0.00000E+000	9	...........	1467.79
	1106	110.7	1.93990E-001	1.53452E-007	0.00000E+000	1.93995E-001	0.00000E+000	9	...........	1467.79
	1107	110.8	1.92997E-001	1.36355E-007	0.00000E+000	1.92996E-001	0.00000E+000	9	...........	1467.79
	1108	110.9	1.92013E-001	1.19407E-007	0.00000E+000	1.91996E-001	0.00000E+000	9	...........	1467.79
	1109	111	1.90974E-001	1.01782E-007	0.00000E+000	1.90996E-001	0.00000E+000	9	...........	1467.79
	1110	111.1	1.89978E-001	8.33233E-008	0.00000E+000	1.89997E-001	0.00000E+000	9	...........	1467.79
	1111	111.2	1.88983E-001	6.25640E-008	0.00000E+000	1.88997E-001	0.00000E+000	9	...........	1467.61
	1112	111.3	1.87994E-001	4.23604E-008	0.00000E+000	1.87997E-001	0.00000E+000	9	...........	1467.61
	1113	111.4	1.86993E-001	2.51017E-008	0.00000E+000	1.86998E-001	0.00000E+000	9	...........	1467.61
	1114	111.5	1.85995E-001	7.80974E-009	0.00000E+000	1.85998E-001	0.00000E+000	9	...........	1467.61
	1115	111.6	1.84989E-001	-1.34552E-008	0.00000E+000	1.84998E-001	0.00000E+000	9	...........	1467.61
	1116	111.7	1.83987E-001	-3.08916E-008	0.00000E+000	1.83999E-001	0.00000E+000	9	...........	1467.61
	1117	111.8	1.82992E-001	-4.80336E-008	0.00000E+000	1.82999E-001	0.00000E+000	9	...........	1467.61
	1118	111.9	1.81996E-001	-6.45588E-008	0.00000E+000	1.81999E-001	0.00000E+000	9	...........	1467.61
	1119	112	1.80996E-001	-8.27009E-008	0.00000E+000	1.81000E-001	0.00000E+000	9	...........	1467.61
	1120	112.1	1.79989E-001	-1.08155E-007	0.00000E+000	1.80000E-001	0.00000E+000	9	...........	1467.62
	1121	112.2	1.78978E-001	-1.22297E-007	0.00000E+000	1.79000E-001	0.00000E+000	9	...........	1467.70
	1122	112.3	1.77975E-001	-1.34527E-007	0.00000E+000	1.78001E-001	0.00000E+000	9	...........	1467.70
	1123	112.4	1.76980E-001	-1.55297E-007	0.00000E+000	1.77001E-001	0.00000E+000	9	...........	1467.70
	1124	112.5	1.75990E-001	-1.73467E-007	0.00000E+000	1.76002E-001	0.00000E+000	9	...........	1467.70
	1125	112.6	1.74995E-001	-1.89409E-007	0.00000E+000	1.75002E-001	0.00000E+000	9	...........	1467.70
	1126	112.7	1.73991E-001	-2.10046E-007	0.00000E+000	1.74002E-001	0.00000E+000	9	...........	1467.70
	1127	112.8	1.72993E-001	-2.29394E-007	0.00000E+000	1.73003E-001	0.00000E+000	9	...........	1467.70
	1128	112.9	1.71990E-001	-2.45863E-007	0.00000E+000	1.72003E-001	0.00000E+000	9	...........	1467.70
	1129	113	1.70988E-001	-2.63383E-007	0.00000E+000	1.71003E-001	0.00000E+000	9	...........	1467.70
	1130	113.1	1.70000E-001	-2.84948E-007	0.00000E+000	1.70004E-001	0.00000E+000	9	...........	1467.70
	1131	113.2	1.69000E-001	-3.06424E-007	0.00000E+000	1.69004E-001	0.00000E+000	9	...........	1467.70
	1132	113.3	1.68004E-001	-3.23066E-007	0.00000E+000	1.68004E-001	0.00000E+000	9	...........	1467.70
	1133	113.4	1.67007E-001	-3.43036E-007	0.00000E+000	1.67005E-001	0.00000E+000	9	...........	1467.70
	1134	113.5	1.65980E-001	-3.56672E-007	0.00000E+000	1.66005E-001	0.00000E+000	9	...........	1467.70
	1135	113.6	1.64989E-001	-3.73986E-007	0.00000E+000	1.65005E-001	0.00000E+000	9	...........	1467.70
	1136	113.7	1.63990E-001	-3.90150E-007	0.00000E+000	1.64006E-001	0.00000E+000	9	...........	1467.70
	1137	113.8	1.62983E-001	-4.01686E-007	0.00000E+000	1.63006E-001	0.00000E+000	9	...........	1467.70
	1138	113.9	1.61973E-001	-4.19606E-007	0.00000E+000	1.61994E-001	0.00000E+000	9	...........	1467.70
	1139	114	1.60976E-001	-4.37809E-007	0.00000E+000	1.60994E-001	0.00000E+000	9	...........	1467.70
	1140	114.1	1.59979E-001	-4.51150E-007	0.00000E+000	1.59995E-001	0.00000E+000	9	...........	1467.71
	1141	114.2	1.58979E-001	-4.68864E-007	0.00000E+000	1.58995E-001	0.00000E+000	9	...........	1467.79
	1142	114.3	1.57994E-001	-4.82695E-007	0.00000E+000	1.57995E-001	0.00000E+000	9	...........	1467.79
	1143	114.4	1.56999E-001	-4.97697E-007	0.00000E+000	1.56996E-001	0.00000E+000	9	...........	1467.79
	1144	114.5	1.55989E-001	-5.11372E-007	0.00000E+000	1.55996E-001	0.00000E+000	9	...........	1467.79
	1145	114.6	1.54990E-001	-5.25741E-007	0.00000E+000	1.54996E-001	0.00000E+000	9	...........	1467.79
	1146	114.7	1.53987E-001	-5.41055E-007	0.00000E+000	1.53997E-001	0.00000E+000	9	...........	1467.79
	1147	114.8	1.52970E-001	-5.57530E-007	0.00000E+000	1.52997E-001	0.00000E+000	9	...........	1467.79
	1148	114.9	1.51977E-001	-5.77895E-007	0.00000E+000	1.51997E-001	0.00000E+000	9	...........	1467.79
	1149	115	1.50974E-001	-5.90942E-007	0.00000E+000	1.50998E-001	0.00000E+000	9	...........	1467.79
	1150	115.1	1.49977E-001	-6.02416E-007	0.00000E+000	1.49998E-001	0.00000E+000	9	...........	1467.79
	1151	115.2	1.48988E-001	-6.20019E-007	0.00000E+000	1.48998E-001	0.00000E+000	9	...........	1467.70
	1152	115.3	1.47989E-001	-6.35494E-007	0.00000E+000	1.47999E-001	0.00000E+000	9	...........	1467.70
	1153	115.4	1.46999E-001	-6.48530E-007	0.00000E+000	1.46999E-001	0.00000E+000	9	...........	1467.70
	1154	115.5	1.45984E-001	-6.70234E-007	0.00000E+000	1.46000E-001	0.00000E+000	9	...........	1467.70
	1155	115.6	1.44990E-001	-6.80825E-007	0.00000E+000	1.45000E-001	0.00000E+000	9	...........	1467.70
	1156	115.7	1.43992E-001	-6.92460E-007	0.00000E+000	1.44000E-001	0.00000E+000	9	...........	1467.70
	1157	115.8	1.43001E-001	-7.08457E-007	0.00000E+000	1.43001E-001	0.00000E+000	9	...........	1467.70
	1158	115.9	1.42009E-001	-7.27416E-007	0.00000E+000	1.42001E-001	0.00000E+000	9	...........	1467.70
	1159	116	1.41015E-001	-7.42313E-007	0.00000E+000	1.41001E-001	0.00000E+000	9	...........	1467.70
	1160	116.1	1.39984E-001	-7.53515E-007	0.00000E+000	1.40002E-001	0.00000E+000	9	...........	1467.70
	1161	116.2	1.38992E-001	-7.68829E-007	0.00000E+000	1.39002E-001	0.00000E+000	9	...........	1467.70
	1162	116.3	1.37990E-001	-7.84154E-007	0.00000E+000	1.38002E-001	0.00000E+000	9	...........	1467.70
	1163	116.4	1.36979E-001	-7.95490E-007	0.00000E+000	1.37003E-001	0.00000E+000	9	...........	1467.70
	1164	116.5	1.35990E-001	-8.11798E-007	0.00000E+000	1.36003E-001	0.00000E+000	9	...........	1467.70
	1165	116.6	1.35000E-001	-8.25678E-007	0.00000E+000	1.35003E-001	0.00000E+000	9	...........	1467.70
	1166	116.7	1.33994E-001	-8.39681E-007	0.00000E+000	1.34004E-001	0.00000E+000	9	...........	1467.70
	1167	116.8	1.33007E-001	-8.55817E-007	0.00000E+000	1.33004E-001	0.00000E+000	9	...........	1467.70
	1168	116.9	1.32012E-001	-8.74987E-007	0.00000E+000	1.32004E-001	0.00000E+000	9	...........	1467.70
	1169	117	1.31006E-001	-8.82766E-007	0.00000E+000	1.31005E-001	0.00000E+000	9	...........	1467.70
	1170	117.1	1.30004E-001	-8.92896E-007	0.00000E+000	1.30005E-001	0.00000E+000	9	...........	1467.70
	1171	117.2	1.29004E-001	-9.06682E-007	0.00000E+000	1.29005E-001	0.00000E+000	9	...........	1467.70
	1172	117.3	1.28001E-001	-9.22979E-007	0.00000E+000	1.28006E-001	0.00000E+000	9	...........	1467.70
	1173	117.4	1.26992E-001	-9.37815E-007	0.00000E+000	1.27006E-001	0.00000E+000	9	...........	1467.70
	1174	117.5	1.25981E-001	-9.58358E-007	0.00000E+000	1.25994E-001	0.00000E+000	9	...........	1467.70
	1175	117.6	1.24979E-001	-9.70088E-007	0.00000E+000	1.24994E-001	0.00000E+000	9	...........	1467.70
	1176	117.7	1.23975E-001	-9.83557E-007	0.00000E+000	1.23995E-001	0.00000E+000	9	...........	1467.70
	1177	117.8	1.22981E-001	-9.98632E-007	0.00000E+000	1.22995E-001	0.00000E+000	9	...........	1467.70
	1178	117.9	1.21995E-001	-1.01641E-006	0.00000E+000	1.21995E-001	0.00000E+000	9	...........	1467.70
	1179	118	1.20983E-001	-1.03282E-006	0.00000E+000	1.20996E-001	0.00000E+000	9	...........	1467.70
	1180	118.1	1.19991E-001	-1.04611E-006	0.00000E+000	1.19996E-001	0.00000E+000	9	...........	1467.70
	1181	118.2	1.18995E-001	-1.05964E-006	0.00000E+000	1.18996E-001	0.00000E+000	9	...........	1467.70
	1182	118.3	1.17982E-001	-1.07529E-006	0.00000E+000	1.17997E-001	0.00000E+000	9	...........	1467.70
	1183	118.4	1.16991E-001	-1.09067E-006	0.00000E+000	1.16997E-001	0.00000E+000	9	...........	1467.70
	1184	118.5	1.16007E-001	-1.10958E-006	0.00000E+000	1.15997E-001	0.00000E+000	9	...........	1467.70
	1185	118.6	1.14999E-001	-1.12612E-006	0.00000E+000	1.14998E-001	0.00000E+000	9	...........	1467.70
	1186	118.7	1.13976E-001	-1.13559E-006	0.00000E+000	1.13998E-001	0.00000E+000	9	...........	1467.70
	1187	118.8	1.12982E-001	-1.15432E-006	0.00000E+000	1.12999E-001	0.00000E+000	9	...........	1467.70
	1188	118.9	1.11981E-001	-1.17116E-006	0.00000E+000	1.11999E-001	0.00000E+000	9	...........	1467.70
	1189	119	1.10986E-001	-1.17928E-006	0.00000E+000	1.10999E-001	0.00000E+000	9	...........	1467.70
	1190	119.1	1.09992E-001	-1.19812E-006	0.00000E+000	1.10000E-001	0.00000E+000	9	...........	1467.70
	1191	119.2	1.08997E-001	-1.21030E-006	0.00000E+000	1.09000E-001	0.00000E+000	9	...........	1467.70
	1192	119.3	1.07992E-001	-1.22709E-006	0.00000E+000	1.08000E-001	0.00000E+000	9	...........	1467.70
	1193	119.4	1.06993E-001	-1.23836E-006	0.00000E+000	1.07001E-001	0.00000E+000	9	...........	1467.70
	1194	119.5	1.05990E-001	-1.24962E-006	0.00000E+000	1.06001E-001	0.00000E+000	9	...........	1467.70
	1195	119.6	1.04990E-001	-1.25960E-006	0.00000E+000	1.05001E-001	0.00000E+000	9	...........	1467.70
	1196	119.7	1.04013E-001	-1.27388E-006	0.00000E+000	1.04002E-001	0.00000E+000	9	...........	1467.70
	1197	119.8	1.03011E-001	-1.29260E-006	0.00000E+000	1.03002E-001	0.00000E+000	9	...........	1467.70
	1198	119.9	1.01992E-001	-1.30957E-006	0.00000E+000	1.02002E-001	0.00000E+000	9	...........	1467.70
	1199	120	1.00993E-001	-1.31847E-006	0.00000E+000	1.01003E-001	0.00000E+000	9	...........	1467.70
	1200	120.1	9.99998E-002	-1.33275E-006	0.00000E+000	1.00003E-001	0.00000E+000	9	...........	1467.70
CURVE4	TABLE
	Pt	T	Vf	Im	Vu	Sig	Ach	IERange	Over	Temp
	#	s	V vs. Ref.	A	V	V	V	#	bits	deg C
	1201	120.2	9.99957E-002	-1.13272E-006	0.00000E+000	1.00003E-001	0.00000E+000	9	...........	1467.70