File: input/ECSA_test/CV_ECSA_#1_#1.DTA
EXPLAIN
TAG	CV
TITLE	LABEL	ECSA	Test Identifier
DATE	LABEL	2/13/2024	Date
TIME	LABEL	8:45:01	Time
NOTES	NOTES	1	Notes...

PSTAT	PSTAT	IFC1010-36068	Potentiostat
VINIT	POTEN	1.00000E-001	F	Initial E (V)
VLIMIT1	POTEN	3.00000E-001	F	Scan Limit 1 (V)
VLIMIT2	POTEN	1.00000E-001	F	Scan Limit 2 (V)
VFINAL	POTEN	1.00000E-001	F	Final E (V)
SCANRATE	QUANT	1.00000E+001	A Real Number
STEPSIZE	QUANT	1.00000E+000	Step Size (mV)
CYCLES	IQUANT	3	Cycles (#)
IMODE	SELECTOR	1	I/E Range Mode
IRANGE	QUANT	3.00000E-001	Max Current (mA)
AREA	QUANT	1.00000E+000	Sample Area (cm^2)
EQDELAY	QUANT	0.00000E+000	Equil. Time (s)
IRCOMP	SELECTOR	0	IRComp
PFCOR	QUANT	5.00000E+001	PF Corr. (ohm)
SAMPLINGMODE	SELECTOR	2	Sampling Mode
EOC	QUANT	0.3246219	Open Circuit (V)
ELECTRODETYPE	SELECTOR	0	Electrode Type
STRIPPING	TOGGLE	F	Used for Stripping
SEQUENCER	TOGGLE	TRUE	Run as Sequence
PSTATMODEL	IQUANT	64	Pstat Model
PSTATSECTION	LABEL	IFC1010-36068	Pstat Section
PSTATSERIALNO	LABEL	36068	Pstat Serial Number
CTRLMODE	IQUANT	1	Control Mode
ELECTROMETER	IQUANT	0	RE=0 or CS=1
IESTAB	IQUANT	2	I/E Stability
CASPEED	IQUANT	4	Control Amp Speed
CONVENTION	IQUANT	1	Current Convention
ICHRANGE	IQUANT	2	Ich Range
ICHRANGEMODE	TOGGLE	F	Ich Auto Range
ICHOFFSETENABLE	TOGGLE	F	Ich Offset Enable
ICHOFFSET	QUANT	0	Ich Offset (V)
ICHFILTER	IQUANT	3	Ich Filter
VCHRANGE	IQUANT	2	Vch Range
VCHRANGEMODE	TOGGLE	F	Vch Auto Range
VCHOFFSETENABLE	TOGGLE	F	Vch Offset Enable
VCHOFFSET	QUANT	0	Vch Offset (V)
VCHFILTER	IQUANT	3	Vch Filter
IERANGELOWERLIMIT	IQUANT	4	I/E Range Lower Limit
IERANGEMODE	TOGGLE	F	I/E AutoRange
IERANGE	IQUANT	9	I/E Range
ACHSELECT	IQUANT	0	Ach Select
ACHRANGE	IQUANT	2	Ach Range
ACHOFFSETENABLE	TOGGLE	F	Ach Offset Enable
ACHOFFSET	QUANT	0	Ach Offset (V)
ACHFILTER	IQUANT	1	Ach Filter
SENSECABLEID	IQUANT	13	Sense Cable ID
PWRCABLEID	IQUANT	13	Power Cable ID
DCCALDATE	LABEL	8/11/2023	DC Calibration Date
ACCALDATE	LABEL	6/2/2023	AC Calibration Date
FRAMEWORKVERSION	LABEL	7.10.3	Framework Version
INSTRUMENTVERSION	LABEL	4.91	Instrument Version
COMMVERSION	LABEL	3.10	Communications Version
CPUPLDVERSION	LABEL	2.22	CPU PLD Version
CTRLPLDVERSION	LABEL	0.00	CTRL PLD Version
PSTATPLDVERSION	LABEL	0.00	PSTAT PLD Version
CURVE1	TABLE
	Pt	T	Vf	Im	Vu	Sig	Ach	IERange	Over	Temp
	#	s	V vs. Ref.	A	V	V	V	#	bits	deg C
	0	0.1	9.99942E-002	-1.76129E-006	0.00000E+000	1.00003E-001	0.00000E+000	9	...........	1468.52
	1	0.2	1.00993E-001	-3.20815E-006	0.00000E+000	1.01003E-001	0.00000E+000	9	...........	1468.52
	2	0.3	1.01990E-001	-3.65695E-006	0.00000E+000	1.02002E-001	0.00000E+000	9	...........	1468.52
	3	0.4	1.03001E-001	-3.89133E-006	0.00000E+000	1.03002E-001	0.00000E+000	9	...........	1468.52
	4	0.5	1.03997E-001	-4.02711E-006	0.00000E+000	1.04002E-001	0.00000E+000	9	...........	1468.52
	5	0.6	1.04981E-001	-4.11721E-006	0.00000E+000	1.05001E-001	0.00000E+000	9	...........	1468.52
	6	0.7	1.05983E-001	-4.17661E-006	0.00000E+000	1.06001E-001	0.00000E+000	9	...........	1468.52
	7	0.8	1.06984E-001	-4.21156E-006	0.00000E+000	1.07001E-001	0.00000E+000	9	...........	1468.52
	8	0.9	1.07988E-001	-4.23467E-006	0.00000E+000	1.08000E-001	0.00000E+000	9	...........	1468.52
	9	1	1.08992E-001	-4.24560E-006	0.00000E+000	1.09000E-001	0.00000E+000	9	...........	1468.52
	10	1.1	1.09987E-001	-4.24984E-006	0.00000E+000	1.10000E-001	0.00000E+000	9	...........	1468.52
	11	1.2	1.10984E-001	-4.24370E-006	0.00000E+000	1.10999E-001	0.00000E+000	9	...........	1468.52
	12	1.3	1.11974E-001	-4.24105E-006	0.00000E+000	1.11999E-001	0.00000E+000	9	...........	1468.52
	13	1.4	1.12965E-001	-4.23371E-006	0.00000E+000	1.12999E-001	0.00000E+000	9	...........	1468.52
	14	1.5	1.13965E-001	-4.21692E-006	0.00000E+000	1.13998E-001	0.00000E+000	9	...........	1468.52
	15	1.6	1.14974E-001	-4.19753E-006	0.00000E+000	1.14998E-001	0.00000E+000	9	...........	1468.05
	16	1.7	1.15995E-001	-4.18222E-006	0.00000E+000	1.15997E-001	0.00000E+000	9	...........	1467.88
	17	1.8	1.16985E-001	-4.16044E-006	0.00000E+000	1.16997E-001	0.00000E+000	9	...........	1467.88
	18	1.9	1.17975E-001	-4.13907E-006	0.00000E+000	1.17997E-001	0.00000E+000	9	...........	1467.88
	19	2	1.18982E-001	-4.11664E-006	0.00000E+000	1.18996E-001	0.00000E+000	9	...........	1467.88
	20	2.1	1.19983E-001	-4.09026E-006	0.00000E+000	1.19996E-001	0.00000E+000	9	...........	1467.88
	21	2.2	1.20984E-001	-4.06278E-006	0.00000E+000	1.20996E-001	0.00000E+000	9	...........	1467.88
	22	2.3	1.21989E-001	-4.03688E-006	0.00000E+000	1.21995E-001	0.00000E+000	9	...........	1467.88
	23	2.4	1.22974E-001	-4.00890E-006	0.00000E+000	1.22995E-001	0.00000E+000	9	...........	1467.88
	24	2.5	1.23973E-001	-3.98028E-006	0.00000E+000	1.23995E-001	0.00000E+000	9	...........	1467.88
	25	2.6	1.24972E-001	-3.95218E-006	0.00000E+000	1.24994E-001	0.00000E+000	9	...........	1467.88
	26	2.7	1.25965E-001	-3.91723E-006	0.00000E+000	1.25994E-001	0.00000E+000	9	...........	1467.88
	27	2.8	1.26979E-001	-3.88699E-006	0.00000E+000	1.27006E-001	0.00000E+000	9	...........	1467.88
	28	2.9	1.27995E-001	-3.86485E-006	0.00000E+000	1.28006E-001	0.00000E+000	9	...........	1467.88
	29	3	1.28996E-001	-3.83131E-006	0.00000E+000	1.29005E-001	0.00000E+000	9	...........	1467.88
	30	3.1	1.29992E-001	-3.79757E-006	0.00000E+000	1.30005E-001	0.00000E+000	9	...........	1467.88
	31	3.2	1.30998E-001	-3.76806E-006	0.00000E+000	1.31005E-001	0.00000E+000	9	...........	1467.88
	32	3.3	1.31998E-001	-3.73393E-006	0.00000E+000	1.32004E-001	0.00000E+000	9	...........	1467.88
	33	3.4	1.32996E-001	-3.70346E-006	0.00000E+000	1.33004E-001	0.00000E+000	9	...........	1467.88
	34	3.5	1.33987E-001	-3.66718E-006	0.00000E+000	1.34004E-001	0.00000E+000	9	...........	1467.88
	35	3.6	1.34983E-001	-3.63207E-006	0.00000E+000	1.35003E-001	0.00000E+000	9	...........	1467.95
	36	3.7	1.35985E-001	-3.59835E-006	0.00000E+000	1.36003E-001	0.00000E+000	9	...........	1467.97
	37	3.8	1.36977E-001	-3.56083E-006	0.00000E+000	1.37003E-001	0.00000E+000	9	...........	1467.97
	38	3.9	1.37986E-001	-3.53035E-006	0.00000E+000	1.38002E-001	0.00000E+000	9	...........	1467.97
	39	4	1.38978E-001	-3.49416E-006	0.00000E+000	1.39002E-001	0.00000E+000	9	...........	1467.97
	40	4.1	1.39974E-001	-3.45620E-006	0.00000E+000	1.40002E-001	0.00000E+000	9	...........	1467.97
	41	4.2	1.40997E-001	-3.42260E-006	0.00000E+000	1.41001E-001	0.00000E+000	9	...........	1467.97
	42	4.3	1.41995E-001	-3.38388E-006	0.00000E+000	1.42001E-001	0.00000E+000	9	...........	1467.97
	43	4.4	1.42991E-001	-3.34375E-006	0.00000E+000	1.43001E-001	0.00000E+000	9	...........	1467.97
	44	4.5	1.43985E-001	-3.30960E-006	0.00000E+000	1.44000E-001	0.00000E+000	9	...........	1467.97
	45	4.6	1.44986E-001	-3.26890E-006	0.00000E+000	1.45000E-001	0.00000E+000	9	...........	1467.91
	46	4.7	1.45988E-001	-3.23439E-006	0.00000E+000	1.46000E-001	0.00000E+000	9	...........	1467.88
	47	4.8	1.46995E-001	-3.19671E-006	0.00000E+000	1.46999E-001	0.00000E+000	9	...........	1467.88
	48	4.9	1.47991E-001	-3.15977E-006	0.00000E+000	1.47999E-001	0.00000E+000	9	...........	1467.88
	49	5	1.48980E-001	-3.12845E-006	0.00000E+000	1.48998E-001	0.00000E+000	9	...........	1467.88
	50	5.1	1.49974E-001	-3.08769E-006	0.00000E+000	1.49998E-001	0.00000E+000	9	...........	1467.88
	51	5.2	1.50963E-001	-3.04861E-006	0.00000E+000	1.50998E-001	0.00000E+000	9	...........	1467.88
	52	5.3	1.51967E-001	-3.00587E-006	0.00000E+000	1.51997E-001	0.00000E+000	9	...........	1467.88
	53	5.4	1.52962E-001	-2.96659E-006	0.00000E+000	1.52997E-001	0.00000E+000	9	...........	1467.88
	54	5.5	1.53974E-001	-2.92700E-006	0.00000E+000	1.53997E-001	0.00000E+000	9	...........	1467.88
	55	5.6	1.54978E-001	-2.88712E-006	0.00000E+000	1.54996E-001	0.00000E+000	9	...........	1467.88
	56	5.7	1.55980E-001	-2.84590E-006	0.00000E+000	1.55996E-001	0.00000E+000	9	...........	1467.88
	57	5.8	1.56984E-001	-2.80444E-006	0.00000E+000	1.56996E-001	0.00000E+000	9	...........	1467.88
	58	5.9	1.57979E-001	-2.76312E-006	0.00000E+000	1.57995E-001	0.00000E+000	9	...........	1467.88
	59	6	1.58966E-001	-2.72580E-006	0.00000E+000	1.58995E-001	0.00000E+000	9	...........	1467.88
	60	6.1	1.59975E-001	-2.68752E-006	0.00000E+000	1.59995E-001	0.00000E+000	9	...........	1467.88
	61	6.2	1.60968E-001	-2.64874E-006	0.00000E+000	1.60994E-001	0.00000E+000	9	...........	1467.88
	62	6.3	1.61960E-001	-2.60255E-006	0.00000E+000	1.61994E-001	0.00000E+000	9	...........	1467.88
	63	6.4	1.62981E-001	-2.55278E-006	0.00000E+000	1.63006E-001	0.00000E+000	9	...........	1467.88
	64	6.5	1.63985E-001	-2.51078E-006	0.00000E+000	1.64006E-001	0.00000E+000	9	...........	1467.88
	65	6.6	1.64956E-001	-2.46347E-006	0.00000E+000	1.65005E-001	0.00000E+000	9	...........	1467.82
	66	6.7	1.65953E-001	-2.42403E-006	0.00000E+000	1.66005E-001	0.00000E+000	9	...........	1467.79
	67	6.8	1.66998E-001	-2.37947E-006	0.00000E+000	1.67005E-001	0.00000E+000	9	...........	1467.79
	68	6.9	1.68000E-001	-2.32936E-006	0.00000E+000	1.68004E-001	0.00000E+000	9	...........	1467.79
	69	7	1.68990E-001	-2.28166E-006	0.00000E+000	1.69004E-001	0.00000E+000	9	...........	1467.79
	70	7.1	1.69992E-001	-2.23951E-006	0.00000E+000	1.70004E-001	0.00000E+000	9	...........	1467.79
	71	7.2	1.70982E-001	-2.19611E-006	0.00000E+000	1.71003E-001	0.00000E+000	9	...........	1467.79
	72	7.3	1.71979E-001	-2.15708E-006	0.00000E+000	1.72003E-001	0.00000E+000	9	...........	1467.79
	73	7.4	1.72984E-001	-2.12013E-006	0.00000E+000	1.73003E-001	0.00000E+000	9	...........	1467.79
	74	7.5	1.73986E-001	-2.07644E-006	0.00000E+000	1.74002E-001	0.00000E+000	9	...........	1467.79
	75	7.6	1.74977E-001	-2.02569E-006	0.00000E+000	1.75002E-001	0.00000E+000	9	...........	1467.53
	76	7.7	1.75980E-001	-1.98016E-006	0.00000E+000	1.76002E-001	0.00000E+000	9	...........	1467.43
	77	7.8	1.76976E-001	-1.93370E-006	0.00000E+000	1.77001E-001	0.00000E+000	9	...........	1467.43
	78	7.9	1.77968E-001	-1.88864E-006	0.00000E+000	1.78001E-001	0.00000E+000	9	...........	1467.43
	79	8	1.78965E-001	-1.84234E-006	0.00000E+000	1.79000E-001	0.00000E+000	9	...........	1467.43
	80	8.1	1.79976E-001	-1.79539E-006	0.00000E+000	1.80000E-001	0.00000E+000	9	...........	1467.43
	81	8.2	1.80994E-001	-1.75356E-006	0.00000E+000	1.81000E-001	0.00000E+000	9	...........	1467.43
	82	8.3	1.81992E-001	-1.70930E-006	0.00000E+000	1.81999E-001	0.00000E+000	9	...........	1467.43
	83	8.4	1.82979E-001	-1.66109E-006	0.00000E+000	1.82999E-001	0.00000E+000	9	...........	1467.43
	84	8.5	1.83984E-001	-1.61317E-006	0.00000E+000	1.83999E-001	0.00000E+000	9	...........	1467.43
	85	8.6	1.84980E-001	-1.56420E-006	0.00000E+000	1.84998E-001	0.00000E+000	9	...........	1467.83
	86	8.7	1.85988E-001	-1.52244E-006	0.00000E+000	1.85998E-001	0.00000E+000	9	...........	1467.97
	87	8.8	1.86983E-001	-1.47512E-006	0.00000E+000	1.86998E-001	0.00000E+000	9	...........	1467.97
	88	8.9	1.87982E-001	-1.43153E-006	0.00000E+000	1.87997E-001	0.00000E+000	9	...........	1467.97
	89	9	1.88971E-001	-1.38397E-006	0.00000E+000	1.88997E-001	0.00000E+000	9	...........	1467.97
	90	9.1	1.89974E-001	-1.33910E-006	0.00000E+000	1.89997E-001	0.00000E+000	9	...........	1467.97
	91	9.2	1.90969E-001	-1.29501E-006	0.00000E+000	1.90996E-001	0.00000E+000	9	...........	1467.97
	92	9.3	1.92004E-001	-1.24999E-006	0.00000E+000	1.91996E-001	0.00000E+000	9	...........	1467.97
	93	9.4	1.92994E-001	-1.20382E-006	0.00000E+000	1.92996E-001	0.00000E+000	9	...........	1467.97
	94	9.5	1.93990E-001	-1.15974E-006	0.00000E+000	1.93995E-001	0.00000E+000	9	...........	1467.97
	95	9.6	1.94976E-001	-1.11174E-006	0.00000E+000	1.94995E-001	0.00000E+000	9	...........	1467.84
	96	9.7	1.95983E-001	-1.06350E-006	0.00000E+000	1.95995E-001	0.00000E+000	9	...........	1467.79
	97	9.8	1.96975E-001	-1.01900E-006	0.00000E+000	1.96994E-001	0.00000E+000	9	...........	1467.79
	98	9.9	1.97975E-001	-9.71488E-007	0.00000E+000	1.97994E-001	0.00000E+000	9	...........	1467.79
	99	10	1.99000E-001	-9.25613E-007	0.00000E+000	1.99006E-001	0.00000E+000	9	...........	1467.79
	100	10.1	1.99990E-001	-8.82577E-007	0.00000E+000	2.00006E-001	0.00000E+000	9	...........	1467.79
	101	10.2	2.00978E-001	-8.37925E-007	0.00000E+000	2.01005E-001	0.00000E+000	9	...........	1467.79
	102	10.3	2.01980E-001	-7.96123E-007	0.00000E+000	2.02005E-001	0.00000E+000	9	...........	1467.79
	103	10.4	2.02981E-001	-7.52904E-007	0.00000E+000	2.03005E-001	0.00000E+000	9	...........	1467.79
	104	10.5	2.03973E-001	-7.09180E-007	0.00000E+000	2.04004E-001	0.00000E+000	9	...........	1467.79
	105	10.6	2.04993E-001	-6.66328E-007	0.00000E+000	2.05004E-001	0.00000E+000	9	...........	1467.66
	106	10.7	2.05991E-001	-6.22031E-007	0.00000E+000	2.06004E-001	0.00000E+000	9	...........	1467.61
	107	10.8	2.06979E-001	-5.78151E-007	0.00000E+000	2.07003E-001	0.00000E+000	9	...........	1467.61
	108	10.9	2.07989E-001	-5.33848E-007	0.00000E+000	2.08003E-001	0.00000E+000	9	...........	1467.61
	109	11	2.08979E-001	-4.96042E-007	0.00000E+000	2.09003E-001	0.00000E+000	9	...........	1467.61
	110	11.1	2.09965E-001	-4.51878E-007	0.00000E+000	2.10002E-001	0.00000E+000	9	...........	1467.61
	111	11.2	2.10970E-001	-4.09854E-007	0.00000E+000	2.11002E-001	0.00000E+000	9	...........	1467.61
	112	11.3	2.11984E-001	-3.66252E-007	0.00000E+000	2.12001E-001	0.00000E+000	9	...........	1467.61
	113	11.4	2.12967E-001	-3.27717E-007	0.00000E+000	2.13001E-001	0.00000E+000	9	...........	1467.61
	114	11.5	2.13955E-001	-2.84909E-007	0.00000E+000	2.14001E-001	0.00000E+000	9	...........	1467.61
	115	11.6	2.14957E-001	-2.43269E-007	0.00000E+000	2.15000E-001	0.00000E+000	9	...........	1467.48
	116	11.7	2.15963E-001	-2.01794E-007	0.00000E+000	2.16000E-001	0.00000E+000	9	...........	1467.43
	117	11.8	2.16962E-001	-1.59248E-007	0.00000E+000	2.17000E-001	0.00000E+000	9	...........	1467.43
	118	11.9	2.17994E-001	-1.20069E-007	0.00000E+000	2.17999E-001	0.00000E+000	9	...........	1467.43
	119	12	2.18967E-001	-8.24286E-008	0.00000E+000	2.18999E-001	0.00000E+000	9	...........	1467.43
	120	12.1	2.19971E-001	-4.66945E-008	0.00000E+000	2.19999E-001	0.00000E+000	9	...........	1467.43
	121	12.2	2.20978E-001	-5.79825E-009	0.00000E+000	2.20998E-001	0.00000E+000	9	...........	1467.43
	122	12.3	2.21972E-001	3.39144E-008	0.00000E+000	2.21998E-001	0.00000E+000	9	...........	1467.43
	123	12.4	2.22970E-001	7.06154E-008	0.00000E+000	2.22998E-001	0.00000E+000	9	...........	1467.43
	124	12.5	2.23978E-001	1.09945E-007	0.00000E+000	2.23997E-001	0.00000E+000	9	...........	1467.43
	125	12.6	2.24962E-001	1.50135E-007	0.00000E+000	2.24997E-001	0.00000E+000	9	...........	1467.77
	126	12.7	2.25957E-001	1.84730E-007	0.00000E+000	2.25997E-001	0.00000E+000	9	...........	1467.88
	127	12.8	2.26955E-001	2.22187E-007	0.00000E+000	2.26996E-001	0.00000E+000	9	...........	1467.88
	128	12.9	2.27963E-001	2.61594E-007	0.00000E+000	2.27996E-001	0.00000E+000	9	...........	1467.88
	129	13	2.28959E-001	2.94472E-007	0.00000E+000	2.28996E-001	0.00000E+000	9	...........	1467.88
	130	13.1	2.29963E-001	3.28745E-007	0.00000E+000	2.29995E-001	0.00000E+000	9	...........	1467.88
	131	13.2	2.30979E-001	3.65146E-007	0.00000E+000	2.30995E-001	0.00000E+000	9	...........	1467.88
	132	13.3	2.31979E-001	3.97913E-007	0.00000E+000	2.31994E-001	0.00000E+000	9	...........	1467.88
	133	13.4	2.32974E-001	4.34692E-007	0.00000E+000	2.32994E-001	0.00000E+000	9	...........	1467.88
	134	13.5	2.33976E-001	4.69353E-007	0.00000E+000	2.33994E-001	0.00000E+000	9	...........	1467.88
	135	13.6	2.34977E-001	5.03376E-007	0.00000E+000	2.35006E-001	0.00000E+000	9	...........	1467.88
	136	13.7	2.35970E-001	5.30620E-007	0.00000E+000	2.36006E-001	0.00000E+000	9	...........	1467.88
	137	13.8	2.36979E-001	5.60264E-007	0.00000E+000	2.37005E-001	0.00000E+000	9	...........	1467.88
	138	13.9	2.37971E-001	5.93270E-007	0.00000E+000	2.38005E-001	0.00000E+000	9	...........	1467.88
	139	14	2.38971E-001	6.26126E-007	0.00000E+000	2.39005E-001	0.00000E+000	9	...........	1467.88
	140	14.1	2.39980E-001	6.59821E-007	0.00000E+000	2.40004E-001	0.00000E+000	9	...........	1467.88
	141	14.2	2.40964E-001	6.89832E-007	0.00000E+000	2.41004E-001	0.00000E+000	9	...........	1467.88
	142	14.3	2.41969E-001	7.17531E-007	0.00000E+000	2.42004E-001	0.00000E+000	9	...........	1467.88
	143	14.4	2.42979E-001	7.46825E-007	0.00000E+000	2.43003E-001	0.00000E+000	9	...........	1467.88
	144	14.5	2.43992E-001	7.74836E-007	0.00000E+000	2.44003E-001	0.00000E+000	9	...........	1467.88
	145	14.6	2.44991E-001	8.00557E-007	0.00000E+000	2.45002E-001	0.00000E+000	9	...........	1467.61
	146	14.7	2.45982E-001	8.31302E-007	0.00000E+000	2.46002E-001	0.00000E+000	9	...........	1467.52
	147	14.8	2.46976E-001	8.59834E-007	0.00000E+000	2.47002E-001	0.00000E+000	9	...........	1467.52
	148	14.9	2.47971E-001	8.86867E-007	0.00000E+000	2.48001E-001	0.00000E+000	9	...........	1467.52
	149	15	2.48970E-001	9.10627E-007	0.00000E+000	2.49001E-001	0.00000E+000	9	...........	1467.52
	150	15.1	2.49976E-001	9.40716E-007	0.00000E+000	2.50001E-001	0.00000E+000	9	...........	1467.52
	151	15.2	2.50977E-001	9.66715E-007	0.00000E+000	2.51000E-001	0.00000E+000	9	...........	1467.52
	152	15.3	2.51974E-001	9.93464E-007	0.00000E+000	2.52000E-001	0.00000E+000	9	...........	1467.52
	153	15.4	2.52960E-001	1.01391E-006	0.00000E+000	2.53000E-001	0.00000E+000	9	...........	1467.52
	154	15.5	2.53957E-001	1.04182E-006	0.00000E+000	2.53999E-001	0.00000E+000	9	...........	1467.52
	155	15.6	2.54952E-001	1.06772E-006	0.00000E+000	2.54999E-001	0.00000E+000	9	...........	1467.45
	156	15.7	2.55964E-001	1.09196E-006	0.00000E+000	2.55999E-001	0.00000E+000	9	...........	1467.43
	157	15.8	2.56981E-001	1.11752E-006	0.00000E+000	2.56998E-001	0.00000E+000	9	...........	1467.43
	158	15.9	2.57976E-001	1.13564E-006	0.00000E+000	2.57998E-001	0.00000E+000	9	...........	1467.43
	159	16	2.58971E-001	1.15519E-006	0.00000E+000	2.58998E-001	0.00000E+000	9	...........	1467.43
	160	16.1	2.59961E-001	1.18570E-006	0.00000E+000	2.59997E-001	0.00000E+000	9	...........	1467.43
	161	16.2	2.60960E-001	1.21264E-006	0.00000E+000	2.60997E-001	0.00000E+000	9	...........	1467.43
	162	16.3	2.61956E-001	1.23788E-006	0.00000E+000	2.61997E-001	0.00000E+000	9	...........	1467.43
	163	16.4	2.62972E-001	1.26142E-006	0.00000E+000	2.62996E-001	0.00000E+000	9	...........	1467.43
	164	16.5	2.63967E-001	1.28367E-006	0.00000E+000	2.63996E-001	0.00000E+000	9	...........	1467.43
	165	16.6	2.64961E-001	1.30503E-006	0.00000E+000	2.64995E-001	0.00000E+000	9	...........	1467.77
	166	16.7	2.65960E-001	1.32976E-006	0.00000E+000	2.65995E-001	0.00000E+000	9	...........	1467.88
	167	16.8	2.66948E-001	1.35298E-006	0.00000E+000	2.66995E-001	0.00000E+000	9	...........	1467.88
	168	16.9	2.67949E-001	1.37718E-006	0.00000E+000	2.67994E-001	0.00000E+000	9	...........	1467.88
	169	17	2.68982E-001	1.39610E-006	0.00000E+000	2.68994E-001	0.00000E+000	9	...........	1467.88
	170	17.1	2.69995E-001	1.42202E-006	0.00000E+000	2.70006E-001	0.00000E+000	9	...........	1467.88
	171	17.2	2.70989E-001	1.44083E-006	0.00000E+000	2.71006E-001	0.00000E+000	9	...........	1467.88
	172	17.3	2.71980E-001	1.46177E-006	0.00000E+000	2.72006E-001	0.00000E+000	9	...........	1467.88
	173	17.4	2.72973E-001	1.48598E-006	0.00000E+000	2.73005E-001	0.00000E+000	9	...........	1467.88
	174	17.5	2.73967E-001	1.50644E-006	0.00000E+000	2.74005E-001	0.00000E+000	9	...........	1467.88
	175	17.6	2.74967E-001	1.52777E-006	0.00000E+000	2.75004E-001	0.00000E+000	9	...........	1467.88
	176	17.7	2.75976E-001	1.54720E-006	0.00000E+000	2.76004E-001	0.00000E+000	9	...........	1467.88
	177	17.8	2.76971E-001	1.56897E-006	0.00000E+000	2.77004E-001	0.00000E+000	9	...........	1467.88
	178	17.9	2.77975E-001	1.59227E-006	0.00000E+000	2.78003E-001	0.00000E+000	9	...........	1467.88
	179	18	2.78966E-001	1.61468E-006	0.00000E+000	2.79003E-001	0.00000E+000	9	...........	1467.88
	180	18.1	2.79965E-001	1.63442E-006	0.00000E+000	2.80003E-001	0.00000E+000	9	...........	1467.88
	181	18.2	2.80957E-001	1.65650E-006	0.00000E+000	2.81002E-001	0.00000E+000	9	...........	1467.88
	182	18.3	2.81967E-001	1.67513E-006	0.00000E+000	2.82002E-001	0.00000E+000	9	...........	1467.88
	183	18.4	2.82970E-001	1.69309E-006	0.00000E+000	2.83002E-001	0.00000E+000	9	...........	1467.88
	184	18.5	2.83984E-001	1.71388E-006	0.00000E+000	2.84001E-001	0.00000E+000	9	...........	1467.88
	185	18.6	2.84976E-001	1.73755E-006	0.00000E+000	2.85001E-001	0.00000E+000	9	...........	1467.61
	186	18.7	2.85971E-001	1.75835E-006	0.00000E+000	2.86001E-001	0.00000E+000	9	...........	1467.52
	187	18.8	2.86976E-001	1.77853E-006	0.00000E+000	2.87000E-001	0.00000E+000	9	...........	1467.52
	188	18.9	2.87988E-001	1.79752E-006	0.00000E+000	2.88000E-001	0.00000E+000	9	...........	1467.52
	189	19	2.88982E-001	1.81600E-006	0.00000E+000	2.89000E-001	0.00000E+000	9	...........	1467.52
	190	19.1	2.89969E-001	1.83581E-006	0.00000E+000	2.89999E-001	0.00000E+000	9	...........	1467.52
	191	19.2	2.90959E-001	1.85841E-006	0.00000E+000	2.90999E-001	0.00000E+000	9	...........	1467.52
	192	19.3	2.91966E-001	1.87990E-006	0.00000E+000	2.91999E-001	0.00000E+000	9	...........	1467.52
	193	19.4	2.92963E-001	1.90105E-006	0.00000E+000	2.92998E-001	0.00000E+000	9	...........	1467.52
	194	19.5	2.93964E-001	1.92155E-006	0.00000E+000	2.93998E-001	0.00000E+000	9	...........	1467.52
	195	19.6	2.94996E-001	1.93927E-006	0.00000E+000	2.94998E-001	0.00000E+000	9	...........	1467.52
	196	19.7	2.95991E-001	1.95972E-006	0.00000E+000	2.95997E-001	0.00000E+000	9	...........	1467.52
	197	19.8	2.96977E-001	1.98046E-006	0.00000E+000	2.96997E-001	0.00000E+000	9	...........	1467.52
	198	19.9	2.97981E-001	2.00043E-006	0.00000E+000	2.97996E-001	0.00000E+000	9	...........	1467.52
	199	20	2.98978E-001	2.02397E-006	0.00000E+000	2.98996E-001	0.00000E+000	9	...........	1467.52
	200	20.1	2.99973E-001	2.04292E-006	0.00000E+000	2.99996E-001	0.00000E+000	9	...........	1467.52
	201	20.2	2.98976E-001	1.57962E-006	0.00000E+000	2.98996E-001	0.00000E+000	9	...........	1467.52
	202	20.3	2.97984E-001	1.48064E-006	0.00000E+000	2.97996E-001	0.00000E+000	9	...........	1467.52
	203	20.4	2.96979E-001	1.39401E-006	0.00000E+000	2.96997E-001	0.00000E+000	9	...........	1467.52
	204	20.5	2.95992E-001	1.31689E-006	0.00000E+000	2.95997E-001	0.00000E+000	9	...........	1467.52
	205	20.6	2.94998E-001	1.24665E-006	0.00000E+000	2.94998E-001	0.00000E+000	9	...........	1467.87
	206	20.7	2.93965E-001	1.18008E-006	0.00000E+000	2.93998E-001	0.00000E+000	9	...........	1467.97
	207	20.8	2.92971E-001	1.11873E-006	0.00000E+000	2.92998E-001	0.00000E+000	9	...........	1467.97
	208	20.9	2.91969E-001	1.06063E-006	0.00000E+000	2.91999E-001	0.00000E+000	9	...........	1467.97
	209	21	2.90962E-001	1.00068E-006	0.00000E+000	2.90999E-001	0.00000E+000	9	...........	1467.97
	210	21.1	2.89977E-001	9.44055E-007	0.00000E+000	2.89999E-001	0.00000E+000	9	...........	1467.97
	211	21.2	2.88982E-001	8.92018E-007	0.00000E+000	2.89000E-001	0.00000E+000	9	...........	1467.97
	212	21.3	2.87991E-001	8.43776E-007	0.00000E+000	2.88000E-001	0.00000E+000	9	...........	1467.97
	213	21.4	2.86979E-001	7.94795E-007	0.00000E+000	2.87000E-001	0.00000E+000	9	...........	1467.97
	214	21.5	2.85982E-001	7.46464E-007	0.00000E+000	2.86001E-001	0.00000E+000	9	...........	1467.97
	215	21.6	2.84983E-001	6.93032E-007	0.00000E+000	2.85001E-001	0.00000E+000	9	...........	1467.84
	216	21.7	2.83985E-001	6.47752E-007	0.00000E+000	2.84001E-001	0.00000E+000	9	...........	1467.79
	217	21.8	2.82980E-001	5.99343E-007	0.00000E+000	2.83002E-001	0.00000E+000	9	...........	1467.79
	218	21.9	2.81978E-001	5.51201E-007	0.00000E+000	2.82002E-001	0.00000E+000	9	...........	1467.79
	219	22	2.80969E-001	5.06193E-007	0.00000E+000	2.81002E-001	0.00000E+000	9	...........	1467.79
	220	22.1	2.79971E-001	4.63975E-007	0.00000E+000	2.80003E-001	0.00000E+000	9	...........	1467.79
	221	22.2	2.78968E-001	4.20083E-007	0.00000E+000	2.79003E-001	0.00000E+000	9	...........	1467.79
	222	22.3	2.77974E-001	3.74881E-007	0.00000E+000	2.78003E-001	0.00000E+000	9	...........	1467.79
	223	22.4	2.76977E-001	3.28539E-007	0.00000E+000	2.77004E-001	0.00000E+000	9	...........	1467.79
	224	22.5	2.75986E-001	2.89449E-007	0.00000E+000	2.76004E-001	0.00000E+000	9	...........	1467.79
	225	22.6	2.74977E-001	2.47936E-007	0.00000E+000	2.75004E-001	0.00000E+000	9	...........	1467.52
	226	22.7	2.73979E-001	2.03495E-007	0.00000E+000	2.74005E-001	0.00000E+000	9	...........	1467.43
	227	22.8	2.72988E-001	1.64388E-007	0.00000E+000	2.73005E-001	0.00000E+000	9	...........	1467.43
	228	22.9	2.71990E-001	1.17479E-007	0.00000E+000	2.72006E-001	0.00000E+000	9	...........	1467.43
	229	23	2.70991E-001	6.94374E-008	0.00000E+000	2.71006E-001	0.00000E+000	9	...........	1467.43
	230	23.1	2.69994E-001	2.59074E-008	0.00000E+000	2.70006E-001	0.00000E+000	9	...........	1467.43
	231	23.2	2.68989E-001	-1.79004E-008	0.00000E+000	2.68994E-001	0.00000E+000	9	...........	1467.43
	232	23.3	2.67953E-001	-5.59961E-008	0.00000E+000	2.67994E-001	0.00000E+000	9	...........	1467.43
	233	23.4	2.66954E-001	-9.52143E-008	0.00000E+000	2.66995E-001	0.00000E+000	9	...........	1467.43
	234	23.5	2.65967E-001	-1.34171E-007	0.00000E+000	2.65995E-001	0.00000E+000	9	...........	1467.43
	235	23.6	2.64961E-001	-1.80113E-007	0.00000E+000	2.64995E-001	0.00000E+000	9	...........	1467.43
	236	23.7	2.63963E-001	-2.20370E-007	0.00000E+000	2.63996E-001	0.00000E+000	9	...........	1467.43
	237	23.8	2.62980E-001	-2.58371E-007	0.00000E+000	2.62996E-001	0.00000E+000	9	...........	1467.43
	238	23.9	2.61964E-001	-3.03363E-007	0.00000E+000	2.61997E-001	0.00000E+000	9	...........	1467.43
	239	24	2.60961E-001	-3.44525E-007	0.00000E+000	2.60997E-001	0.00000E+000	9	...........	1467.43
	240	24.1	2.59967E-001	-3.83233E-007	0.00000E+000	2.59997E-001	0.00000E+000	9	...........	1467.43
	241	24.2	2.58976E-001	-4.23879E-007	0.00000E+000	2.58998E-001	0.00000E+000	9	...........	1467.43
	242	24.3	2.57978E-001	-4.61374E-007	0.00000E+000	2.57998E-001	0.00000E+000	9	...........	1467.43
	243	24.4	2.56988E-001	-5.00265E-007	0.00000E+000	2.56998E-001	0.00000E+000	9	...........	1467.43
	244	24.5	2.55976E-001	-5.39799E-007	0.00000E+000	2.55999E-001	0.00000E+000	9	...........	1467.43
	245	24.6	2.54960E-001	-5.78756E-007	0.00000E+000	2.54999E-001	0.00000E+000	9	...........	1467.78
	246	24.7	2.53956E-001	-6.21909E-007	0.00000E+000	2.53999E-001	0.00000E+000	9	...........	1467.88
	247	24.8	2.52959E-001	-6.63021E-007	0.00000E+000	2.53000E-001	0.00000E+000	9	...........	1467.88
	248	24.9	2.51972E-001	-7.01617E-007	0.00000E+000	2.52000E-001	0.00000E+000	9	...........	1467.88
	249	25	2.50981E-001	-7.43803E-007	0.00000E+000	2.51000E-001	0.00000E+000	9	...........	1467.88
	250	25.1	2.49985E-001	-7.85782E-007	0.00000E+000	2.50001E-001	0.00000E+000	9	...........	1467.88
	251	25.2	2.48976E-001	-8.28307E-007	0.00000E+000	2.49001E-001	0.00000E+000	9	...........	1467.88
	252	25.3	2.47980E-001	-8.72726E-007	0.00000E+000	2.48001E-001	0.00000E+000	9	...........	1467.88
	253	25.4	2.46977E-001	-9.12755E-007	0.00000E+000	2.47002E-001	0.00000E+000	9	...........	1467.88
	254	25.5	2.45978E-001	-9.57524E-007	0.00000E+000	2.46002E-001	0.00000E+000	9	...........	1467.88
	255	25.6	2.44985E-001	-1.00726E-006	0.00000E+000	2.45002E-001	0.00000E+000	9	...........	1467.74
	256	25.7	2.43997E-001	-1.04797E-006	0.00000E+000	2.44003E-001	0.00000E+000	9	...........	1467.70
	257	25.8	2.42991E-001	-1.08739E-006	0.00000E+000	2.43003E-001	0.00000E+000	9	...........	1467.70
	258	25.9	2.41964E-001	-1.13338E-006	0.00000E+000	2.42004E-001	0.00000E+000	9	...........	1467.70
	259	26	2.40968E-001	-1.18059E-006	0.00000E+000	2.41004E-001	0.00000E+000	9	...........	1467.70
	260	26.1	2.39979E-001	-1.22404E-006	0.00000E+000	2.40004E-001	0.00000E+000	9	...........	1467.70
	261	26.2	2.38974E-001	-1.26974E-006	0.00000E+000	2.39005E-001	0.00000E+000	9	...........	1467.70
	262	26.3	2.37981E-001	-1.31506E-006	0.00000E+000	2.38005E-001	0.00000E+000	9	...........	1467.70
	263	26.4	2.36978E-001	-1.36258E-006	0.00000E+000	2.37005E-001	0.00000E+000	9	...........	1467.70
	264	26.5	2.35973E-001	-1.40504E-006	0.00000E+000	2.36006E-001	0.00000E+000	9	...........	1467.70
	265	26.6	2.34980E-001	-1.44882E-006	0.00000E+000	2.35006E-001	0.00000E+000	9	...........	1467.49
	266	26.7	2.33983E-001	-1.49821E-006	0.00000E+000	2.33994E-001	0.00000E+000	9	...........	1467.43
	267	26.8	2.32975E-001	-1.54496E-006	0.00000E+000	2.32994E-001	0.00000E+000	9	...........	1467.43
	268	26.9	2.31979E-001	-1.59072E-006	0.00000E+000	2.31994E-001	0.00000E+000	9	...........	1467.43
	269	27	2.30980E-001	-1.63754E-006	0.00000E+000	2.30995E-001	0.00000E+000	9	...........	1467.43
	270	27.1	2.29965E-001	-1.68537E-006	0.00000E+000	2.29995E-001	0.00000E+000	9	...........	1467.43
	271	27.2	2.28968E-001	-1.72851E-006	0.00000E+000	2.28996E-001	0.00000E+000	9	...........	1467.43
	272	27.3	2.27966E-001	-1.77688E-006	0.00000E+000	2.27996E-001	0.00000E+000	9	...........	1467.43
	273	27.4	2.26964E-001	-1.82445E-006	0.00000E+000	2.26996E-001	0.00000E+000	9	...........	1467.43
	274	27.5	2.25961E-001	-1.86965E-006	0.00000E+000	2.25997E-001	0.00000E+000	9	...........	1467.43
	275	27.6	2.24961E-001	-1.91522E-006	0.00000E+000	2.24997E-001	0.00000E+000	9	...........	1467.50
	276	27.7	2.23984E-001	-1.96951E-006	0.00000E+000	2.23997E-001	0.00000E+000	9	...........	1467.52
	277	27.8	2.22973E-001	-2.01686E-006	0.00000E+000	2.22998E-001	0.00000E+000	9	...........	1467.52
	278	27.9	2.21981E-001	-2.06500E-006	0.00000E+000	2.21998E-001	0.00000E+000	9	...........	1467.52
	279	28	2.20986E-001	-2.11873E-006	0.00000E+000	2.20998E-001	0.00000E+000	9	...........	1467.52
	280	28.1	2.19975E-001	-2.17247E-006	0.00000E+000	2.19999E-001	0.00000E+000	9	...........	1467.52
	281	28.2	2.18974E-001	-2.22305E-006	0.00000E+000	2.18999E-001	0.00000E+000	9	...........	1467.52
	282	28.3	2.17985E-001	-2.27506E-006	0.00000E+000	2.17999E-001	0.00000E+000	9	...........	1467.52
	283	28.4	2.16972E-001	-2.32750E-006	0.00000E+000	2.17000E-001	0.00000E+000	9	...........	1467.52
	284	28.5	2.15973E-001	-2.38254E-006	0.00000E+000	2.16000E-001	0.00000E+000	9	...........	1467.52
	285	28.6	2.14962E-001	-2.43607E-006	0.00000E+000	2.15000E-001	0.00000E+000	9	...........	1467.80
	286	28.7	2.13963E-001	-2.49155E-006	0.00000E+000	2.14001E-001	0.00000E+000	9	...........	1467.88
	287	28.8	2.12971E-001	-2.54466E-006	0.00000E+000	2.13001E-001	0.00000E+000	9	...........	1467.88
	288	28.9	2.11982E-001	-2.59797E-006	0.00000E+000	2.12001E-001	0.00000E+000	9	...........	1467.88
	289	29	2.10974E-001	-2.64808E-006	0.00000E+000	2.11002E-001	0.00000E+000	9	...........	1467.88
	290	29.1	2.09975E-001	-2.70323E-006	0.00000E+000	2.10002E-001	0.00000E+000	9	...........	1467.88
	291	29.2	2.08979E-001	-2.75616E-006	0.00000E+000	2.09003E-001	0.00000E+000	9	...........	1467.88
	292	29.3	2.07991E-001	-2.81135E-006	0.00000E+000	2.08003E-001	0.00000E+000	9	...........	1467.88
	293	29.4	2.06977E-001	-2.86565E-006	0.00000E+000	2.07003E-001	0.00000E+000	9	...........	1467.88
	294	29.5	2.05983E-001	-2.92162E-006	0.00000E+000	2.06004E-001	0.00000E+000	9	...........	1467.88
	295	29.6	2.04985E-001	-2.97949E-006	0.00000E+000	2.05004E-001	0.00000E+000	9	...........	1467.67
	296	29.7	2.03973E-001	-3.03622E-006	0.00000E+000	2.04004E-001	0.00000E+000	9	...........	1467.61
	297	29.8	2.02975E-001	-3.09174E-006	0.00000E+000	2.03005E-001	0.00000E+000	9	...........	1467.61
	298	29.9	2.01983E-001	-3.14532E-006	0.00000E+000	2.02005E-001	0.00000E+000	9	...........	1467.61
	299	30	2.00988E-001	-3.20103E-006	0.00000E+000	2.01005E-001	0.00000E+000	9	...........	1467.61
	300	30.1	1.99993E-001	-3.25909E-006	0.00000E+000	2.00006E-001	0.00000E+000	9	...........	1467.61
	301	30.2	1.99005E-001	-3.32011E-006	0.00000E+000	1.99006E-001	0.00000E+000	9	...........	1467.61
	302	30.3	1.97984E-001	-3.37944E-006	0.00000E+000	1.97994E-001	0.00000E+000	9	...........	1467.61
	303	30.4	1.96986E-001	-3.43648E-006	0.00000E+000	1.96994E-001	0.00000E+000	9	...........	1467.61
	304	30.5	1.95987E-001	-3.49143E-006	0.00000E+000	1.95995E-001	0.00000E+000	9	...........	1467.61
	305	30.6	1.94983E-001	-3.55003E-006	0.00000E+000	1.94995E-001	0.00000E+000	9	...........	1467.47
	306	30.7	1.93997E-001	-3.61286E-006	0.00000E+000	1.93995E-001	0.00000E+000	9	...........	1467.43
	307	30.8	1.92995E-001	-3.67424E-006	0.00000E+000	1.92996E-001	0.00000E+000	9	...........	1467.43
	308	30.9	1.91997E-001	-3.73390E-006	0.00000E+000	1.91996E-001	0.00000E+000	9	...........	1467.43
	309	31	1.90965E-001	-3.78825E-006	0.00000E+000	1.90996E-001	0.00000E+000	9	...........	1467.43
	310	31.1	1.89969E-001	-3.84464E-006	0.00000E+000	1.89997E-001	0.00000E+000	9	...........	1467.43
	311	31.2	1.88976E-001	-3.90286E-006	0.00000E+000	1.88997E-001	0.00000E+000	9	...........	1467.43
	312	31.3	1.87974E-001	-3.95818E-006	0.00000E+000	1.87997E-001	0.00000E+000	9	...........	1467.43
	313	31.4	1.86990E-001	-4.01716E-006	0.00000E+000	1.86998E-001	0.00000E+000	9	...........	1467.43
	314	31.5	1.85990E-001	-4.07772E-006	0.00000E+000	1.85998E-001	0.00000E+000	9	...........	1467.43
	315	31.6	1.84989E-001	-4.13612E-006	0.00000E+000	1.84998E-001	0.00000E+000	9	...........	1467.85
	316	31.7	1.83987E-001	-4.20265E-006	0.00000E+000	1.83999E-001	0.00000E+000	9	...........	1467.97
	317	31.8	1.82990E-001	-4.25786E-006	0.00000E+000	1.82999E-001	0.00000E+000	9	...........	1467.97
	318	31.9	1.81994E-001	-4.31892E-006	0.00000E+000	1.81999E-001	0.00000E+000	9	...........	1467.97
	319	32	1.80992E-001	-4.37321E-006	0.00000E+000	1.81000E-001	0.00000E+000	9	...........	1467.97
	320	32.1	1.79976E-001	-4.42715E-006	0.00000E+000	1.80000E-001	0.00000E+000	9	...........	1467.97
	321	32.2	1.78964E-001	-4.48813E-006	0.00000E+000	1.79000E-001	0.00000E+000	9	...........	1467.97
	322	32.3	1.77968E-001	-4.54500E-006	0.00000E+000	1.78001E-001	0.00000E+000	9	...........	1467.97
	323	32.4	1.76983E-001	-4.60058E-006	0.00000E+000	1.77001E-001	0.00000E+000	9	...........	1467.97
	324	32.5	1.75991E-001	-4.65820E-006	0.00000E+000	1.76002E-001	0.00000E+000	9	...........	1467.97
	325	32.6	1.74982E-001	-4.71018E-006	0.00000E+000	1.75002E-001	0.00000E+000	9	...........	1467.97
	326	32.7	1.73990E-001	-4.76606E-006	0.00000E+000	1.74002E-001	0.00000E+000	9	...........	1467.97
	327	32.8	1.72994E-001	-4.81913E-006	0.00000E+000	1.73003E-001	0.00000E+000	9	...........	1467.97
	328	32.9	1.71982E-001	-4.87409E-006	0.00000E+000	1.72003E-001	0.00000E+000	9	...........	1467.97
	329	33	1.70989E-001	-4.93024E-006	0.00000E+000	1.71003E-001	0.00000E+000	9	...........	1467.97
	330	33.1	1.70009E-001	-4.98723E-006	0.00000E+000	1.70004E-001	0.00000E+000	9	...........	1467.97
	331	33.2	1.68994E-001	-5.04401E-006	0.00000E+000	1.69004E-001	0.00000E+000	9	...........	1467.97
	332	33.3	1.67993E-001	-5.10047E-006	0.00000E+000	1.68004E-001	0.00000E+000	9	...........	1467.97
	333	33.4	1.66998E-001	-5.15611E-006	0.00000E+000	1.67005E-001	0.00000E+000	9	...........	1467.97
	334	33.5	1.65963E-001	-5.20890E-006	0.00000E+000	1.66005E-001	0.00000E+000	9	...........	1467.97
	335	33.6	1.64977E-001	-5.25863E-006	0.00000E+000	1.65005E-001	0.00000E+000	9	...........	1467.69
	336	33.7	1.63991E-001	-5.31222E-006	0.00000E+000	1.64006E-001	0.00000E+000	9	...........	1467.61
	337	33.8	1.62974E-001	-5.36686E-006	0.00000E+000	1.63006E-001	0.00000E+000	9	...........	1467.61
	338	33.9	1.61964E-001	-5.42192E-006	0.00000E+000	1.61994E-001	0.00000E+000	9	...........	1467.61
	339	34	1.60974E-001	-5.47744E-006	0.00000E+000	1.60994E-001	0.00000E+000	9	...........	1467.61
	340	34.1	1.59980E-001	-5.52754E-006	0.00000E+000	1.59995E-001	0.00000E+000	9	...........	1467.61
	341	34.2	1.58969E-001	-5.57628E-006	0.00000E+000	1.58995E-001	0.00000E+000	9	...........	1467.61
	342	34.3	1.57988E-001	-5.62514E-006	0.00000E+000	1.57995E-001	0.00000E+000	9	...........	1467.61
	343	34.4	1.56993E-001	-5.67759E-006	0.00000E+000	1.56996E-001	0.00000E+000	9	...........	1467.61
	344	34.5	1.55984E-001	-5.73174E-006	0.00000E+000	1.55996E-001	0.00000E+000	9	...........	1467.61
	345	34.6	1.54980E-001	-5.78037E-006	0.00000E+000	1.54996E-001	0.00000E+000	9	...........	1467.54
	346	34.7	1.53972E-001	-5.82966E-006	0.00000E+000	1.53997E-001	0.00000E+000	9	...........	1467.52
	347	34.8	1.52972E-001	-5.88104E-006	0.00000E+000	1.52997E-001	0.00000E+000	9	...........	1467.52
	348	34.9	1.51975E-001	-5.92886E-006	0.00000E+000	1.51997E-001	0.00000E+000	9	...........	1467.52
	349	35	1.50973E-001	-5.98133E-006	0.00000E+000	1.50998E-001	0.00000E+000	9	...........	1467.52
	350	35.1	1.49976E-001	-6.03422E-006	0.00000E+000	1.49998E-001	0.00000E+000	9	...........	1467.52
	351	35.2	1.48988E-001	-6.08173E-006	0.00000E+000	1.48998E-001	0.00000E+000	9	...........	1467.52
	352	35.3	1.47990E-001	-6.13068E-006	0.00000E+000	1.47999E-001	0.00000E+000	9	...........	1467.52
	353	35.4	1.46997E-001	-6.17806E-006	0.00000E+000	1.46999E-001	0.00000E+000	9	...........	1467.52
	354	35.5	1.45987E-001	-6.22959E-006	0.00000E+000	1.46000E-001	0.00000E+000	9	...........	1467.52
	355	35.6	1.44990E-001	-6.27802E-006	0.00000E+000	1.45000E-001	0.00000E+000	9	...........	1467.81
	356	35.7	1.43995E-001	-6.32692E-006	0.00000E+000	1.44000E-001	0.00000E+000	9	...........	1467.88
	357	35.8	1.42999E-001	-6.37451E-006	0.00000E+000	1.43001E-001	0.00000E+000	9	...........	1467.88
	358	35.9	1.42000E-001	-6.41999E-006	0.00000E+000	1.42001E-001	0.00000E+000	9	...........	1467.88
	359	36	1.41001E-001	-6.46384E-006	0.00000E+000	1.41001E-001	0.00000E+000	9	...........	1467.88
	360	36.1	1.39976E-001	-6.50960E-006	0.00000E+000	1.40002E-001	0.00000E+000	9	...........	1467.88
	361	36.2	1.38991E-001	-6.55273E-006	0.00000E+000	1.39002E-001	0.00000E+000	9	...........	1467.88
	362	36.3	1.37992E-001	-6.60113E-006	0.00000E+000	1.38002E-001	0.00000E+000	9	...........	1467.88
	363	36.4	1.36989E-001	-6.64834E-006	0.00000E+000	1.37003E-001	0.00000E+000	9	...........	1467.88
	364	36.5	1.35992E-001	-6.69380E-006	0.00000E+000	1.36003E-001	0.00000E+000	9	...........	1467.88
	365	36.6	1.34987E-001	-6.74056E-006	0.00000E+000	1.35003E-001	0.00000E+000	9	...........	1467.88
	366	36.7	1.33982E-001	-6.79041E-006	0.00000E+000	1.34004E-001	0.00000E+000	9	...........	1467.88
	367	36.8	1.32998E-001	-6.83762E-006	0.00000E+000	1.33004E-001	0.00000E+000	9	...........	1467.88
	368	36.9	1.32006E-001	-6.88805E-006	0.00000E+000	1.32004E-001	0.00000E+000	9	...........	1467.88
	369	37	1.30998E-001	-6.93797E-006	0.00000E+000	1.31005E-001	0.00000E+000	9	...........	1467.88
	370	37.1	1.29995E-001	-6.98734E-006	0.00000E+000	1.30005E-001	0.00000E+000	9	...........	1467.88
	371	37.2	1.28999E-001	-7.04042E-006	0.00000E+000	1.29005E-001	0.00000E+000	9	...........	1467.88
	372	37.3	1.27997E-001	-7.08663E-006	0.00000E+000	1.28006E-001	0.00000E+000	9	...........	1467.88
	373	37.4	1.26985E-001	-7.13582E-006	0.00000E+000	1.27006E-001	0.00000E+000	9	...........	1467.88
	374	37.5	1.25970E-001	-7.18761E-006	0.00000E+000	1.25994E-001	0.00000E+000	9	...........	1467.88
	375	37.6	1.24976E-001	-7.23621E-006	0.00000E+000	1.24994E-001	0.00000E+000	9	...........	1467.53
	376	37.7	1.23975E-001	-7.28258E-006	0.00000E+000	1.23995E-001	0.00000E+000	9	...........	1467.43
	377	37.8	1.22974E-001	-7.33822E-006	0.00000E+000	1.22995E-001	0.00000E+000	9	...........	1467.43
	378	37.9	1.21994E-001	-7.38525E-006	0.00000E+000	1.21995E-001	0.00000E+000	9	...........	1467.43
	379	38	1.20989E-001	-7.42724E-006	0.00000E+000	1.20996E-001	0.00000E+000	9	...........	1467.43
	380	38.1	1.19988E-001	-7.47639E-006	0.00000E+000	1.19996E-001	0.00000E+000	9	...........	1467.43
	381	38.2	1.18982E-001	-7.52705E-006	0.00000E+000	1.18996E-001	0.00000E+000	9	...........	1467.43
	382	38.3	1.17980E-001	-7.57273E-006	0.00000E+000	1.17997E-001	0.00000E+000	9	...........	1467.43
	383	38.4	1.16985E-001	-7.62528E-006	0.00000E+000	1.16997E-001	0.00000E+000	9	...........	1467.43
	384	38.5	1.15997E-001	-7.67565E-006	0.00000E+000	1.15997E-001	0.00000E+000	9	...........	1467.43
	385	38.6	1.14980E-001	-7.72705E-006	0.00000E+000	1.14998E-001	0.00000E+000	9	...........	1467.50
	386	38.7	1.13974E-001	-7.77816E-006	0.00000E+000	1.13998E-001	0.00000E+000	9	...........	1467.52
	387	38.8	1.12977E-001	-7.83035E-006	0.00000E+000	1.12999E-001	0.00000E+000	9	...........	1467.52
[...]
	1003	100.4	2.96972E-001	6.91682E-007	0.00000E+000	2.96997E-001	0.00000E+000	9	...........	1467.52
	1004	100.5	2.95995E-001	6.30038E-007	0.00000E+000	2.95997E-001	0.00000E+000	9	...........	1467.52
	1005	100.6	2.94994E-001	5.71722E-007	0.00000E+000	2.94998E-001	0.00000E+000	9	...........	1467.52
	1006	100.7	2.93965E-001	5.12989E-007	0.00000E+000	2.93998E-001	0.00000E+000	9	...........	1467.52
	1007	100.8	2.92972E-001	4.62230E-007	0.00000E+000	2.92998E-001	0.00000E+000	9	...........	1467.52
	1008	100.9	2.91975E-001	4.13271E-007	0.00000E+000	2.91999E-001	0.00000E+000	9	...........	1467.52
	1009	101	2.90967E-001	3.66780E-007	0.00000E+000	2.90999E-001	0.00000E+000	9	...........	1467.52
	1010	101.1	2.89978E-001	3.19982E-007	0.00000E+000	2.89999E-001	0.00000E+000	9	...........	1467.52
	1011	101.2	2.88978E-001	2.74169E-007	0.00000E+000	2.89000E-001	0.00000E+000	9	...........	1467.52
	1012	101.3	2.87989E-001	2.30933E-007	0.00000E+000	2.88000E-001	0.00000E+000	9	...........	1467.52
	1013	101.4	2.86986E-001	1.88620E-007	0.00000E+000	2.87000E-001	0.00000E+000	9	...........	1467.52
	1014	101.5	2.85979E-001	1.51374E-007	0.00000E+000	2.86001E-001	0.00000E+000	9	...........	1467.52
	1015	101.6	2.84989E-001	1.12284E-007	0.00000E+000	2.85001E-001	0.00000E+000	9	...........	1467.76
	1016	101.7	2.83993E-001	7.32492E-008	0.00000E+000	2.84001E-001	0.00000E+000	9	...........	1467.79
	1017	101.8	2.82980E-001	3.74539E-008	0.00000E+000	2.83002E-001	0.00000E+000	9	...........	1467.79
	1018	101.9	2.81973E-001	-7.36522E-009	0.00000E+000	2.82002E-001	0.00000E+000	9	...........	1467.79
	1019	102	2.80962E-001	-4.72057E-008	0.00000E+000	2.81002E-001	0.00000E+000	9	...........	1467.79
	1020	102.1	2.79965E-001	-8.46846E-008	0.00000E+000	2.80003E-001	0.00000E+000	9	...........	1467.79
	1021	102.2	2.78973E-001	-1.27403E-007	0.00000E+000	2.79003E-001	0.00000E+000	9	...........	1467.79
	1022	102.3	2.77979E-001	-1.64360E-007	0.00000E+000	2.78003E-001	0.00000E+000	9	...........	1467.79
	1023	102.4	2.76983E-001	-2.02200E-007	0.00000E+000	2.77004E-001	0.00000E+000	9	...........	1467.79
	1024	102.5	2.75988E-001	-2.43919E-007	0.00000E+000	2.76004E-001	0.00000E+000	9	...........	1467.79
	1025	102.6	2.74980E-001	-2.80831E-007	0.00000E+000	2.75004E-001	0.00000E+000	9	...........	1467.55
	1026	102.7	2.73981E-001	-3.14359E-007	0.00000E+000	2.74005E-001	0.00000E+000	9	...........	1467.52
	1027	102.8	2.72982E-001	-3.48176E-007	0.00000E+000	2.73005E-001	0.00000E+000	9	...........	1467.52
	1028	102.9	2.71981E-001	-3.88267E-007	0.00000E+000	2.72006E-001	0.00000E+000	9	...........	1467.52
	1029	103	2.70990E-001	-4.20011E-007	0.00000E+000	2.71006E-001	0.00000E+000	9	...........	1467.52
	1030	103.1	2.69998E-001	-4.51784E-007	0.00000E+000	2.70006E-001	0.00000E+000	9	...........	1467.52
	1031	103.2	2.68990E-001	-4.88751E-007	0.00000E+000	2.68994E-001	0.00000E+000	9	...........	1467.52
	1032	103.3	2.67954E-001	-5.22741E-007	0.00000E+000	2.67994E-001	0.00000E+000	9	...........	1467.52
	1033	103.4	2.66955E-001	-5.59042E-007	0.00000E+000	2.66995E-001	0.00000E+000	9	...........	1467.52
	1034	103.5	2.65965E-001	-5.94576E-007	0.00000E+000	2.65995E-001	0.00000E+000	9	...........	1467.52
	1035	103.6	2.64967E-001	-6.32216E-007	0.00000E+000	2.64995E-001	0.00000E+000	9	...........	1467.44
	1036	103.7	2.63958E-001	-6.68756E-007	0.00000E+000	2.63996E-001	0.00000E+000	9	...........	1467.43
	1037	103.8	2.62967E-001	-7.00356E-007	0.00000E+000	2.62996E-001	0.00000E+000	9	...........	1467.43
	1038	103.9	2.61959E-001	-7.31984E-007	0.00000E+000	2.61997E-001	0.00000E+000	9	...........	1467.43
	1039	104	2.60968E-001	-7.71419E-007	0.00000E+000	2.60997E-001	0.00000E+000	9	...........	1467.43
	1040	104.1	2.59971E-001	-8.01263E-007	0.00000E+000	2.59997E-001	0.00000E+000	9	...........	1467.43
	1041	104.2	2.58972E-001	-8.24384E-007	0.00000E+000	2.58998E-001	0.00000E+000	9	...........	1467.43
	1042	104.3	2.57969E-001	-8.67847E-007	0.00000E+000	2.57998E-001	0.00000E+000	9	...........	1467.43
	1043	104.4	2.56981E-001	-9.04598E-007	0.00000E+000	2.56998E-001	0.00000E+000	9	...........	1467.43
	1044	104.5	2.55971E-001	-9.42344E-007	0.00000E+000	2.55999E-001	0.00000E+000	9	...........	1467.43
	1045	104.6	2.54956E-001	-9.76000E-007	0.00000E+000	2.54999E-001	0.00000E+000	9	...........	1467.51
	1046	104.7	2.53965E-001	-1.00897E-006	0.00000E+000	2.53999E-001	0.00000E+000	9	...........	1467.52
	1047	104.8	2.52967E-001	-1.04588E-006	0.00000E+000	2.53000E-001	0.00000E+000	9	...........	1467.52
	1048	104.9	2.51965E-001	-1.08427E-006	0.00000E+000	2.52000E-001	0.00000E+000	9	...........	1467.52
	1049	105	2.50970E-001	-1.12094E-006	0.00000E+000	2.51000E-001	0.00000E+000	9	...........	1467.52
	1050	105.1	2.49986E-001	-1.16047E-006	0.00000E+000	2.50001E-001	0.00000E+000	9	...........	1467.52
	1051	105.2	2.48972E-001	-1.19722E-006	0.00000E+000	2.49001E-001	0.00000E+000	9	...........	1467.52
	1052	105.3	2.47979E-001	-1.23733E-006	0.00000E+000	2.48001E-001	0.00000E+000	9	...........	1467.52
	1053	105.4	2.46987E-001	-1.27330E-006	0.00000E+000	2.47002E-001	0.00000E+000	9	...........	1467.52
	1054	105.5	2.45988E-001	-1.31102E-006	0.00000E+000	2.46002E-001	0.00000E+000	9	...........	1467.52
	1055	105.6	2.44991E-001	-1.34600E-006	0.00000E+000	2.45002E-001	0.00000E+000	9	...........	1467.77
	1056	105.7	2.43992E-001	-1.38154E-006	0.00000E+000	2.44003E-001	0.00000E+000	9	...........	1467.79
	1057	105.8	2.42981E-001	-1.42220E-006	0.00000E+000	2.43003E-001	0.00000E+000	9	...........	1467.79
	1058	105.9	2.41975E-001	-1.46193E-006	0.00000E+000	2.42004E-001	0.00000E+000	9	...........	1467.79
	1059	106	2.40967E-001	-1.49815E-006	0.00000E+000	2.41004E-001	0.00000E+000	9	...........	1467.79
	1060	106.1	2.39983E-001	-1.53746E-006	0.00000E+000	2.40004E-001	0.00000E+000	9	...........	1467.79
	1061	106.2	2.38974E-001	-1.57607E-006	0.00000E+000	2.39005E-001	0.00000E+000	9	...........	1467.79
	1062	106.3	2.37977E-001	-1.61531E-006	0.00000E+000	2.38005E-001	0.00000E+000	9	...........	1467.79
	1063	106.4	2.36984E-001	-1.65385E-006	0.00000E+000	2.37005E-001	0.00000E+000	9	...........	1467.79
	1064	106.5	2.35970E-001	-1.69696E-006	0.00000E+000	2.36006E-001	0.00000E+000	9	...........	1467.79
	1065	106.6	2.34981E-001	-1.74293E-006	0.00000E+000	2.35006E-001	0.00000E+000	9	...........	1467.55
	1066	106.7	2.33980E-001	-1.78462E-006	0.00000E+000	2.33994E-001	0.00000E+000	9	...........	1467.52
	1067	106.8	2.32978E-001	-1.82130E-006	0.00000E+000	2.32994E-001	0.00000E+000	9	...........	1467.52
	1068	106.9	2.31981E-001	-1.86147E-006	0.00000E+000	2.31994E-001	0.00000E+000	9	...........	1467.52
	1069	107	2.30978E-001	-1.90078E-006	0.00000E+000	2.30995E-001	0.00000E+000	9	...........	1467.52
	1070	107.1	2.29964E-001	-1.94324E-006	0.00000E+000	2.29995E-001	0.00000E+000	9	...........	1467.52
	1071	107.2	2.28966E-001	-1.98564E-006	0.00000E+000	2.28996E-001	0.00000E+000	9	...........	1467.52
	1072	107.3	2.27970E-001	-2.03609E-006	0.00000E+000	2.27996E-001	0.00000E+000	9	...........	1467.52
	1073	107.4	2.26963E-001	-2.08263E-006	0.00000E+000	2.26996E-001	0.00000E+000	9	...........	1467.52
	1074	107.5	2.25967E-001	-2.12399E-006	0.00000E+000	2.25997E-001	0.00000E+000	9	...........	1467.52
	1075	107.6	2.24966E-001	-2.16841E-006	0.00000E+000	2.24997E-001	0.00000E+000	9	...........	1467.52
	1076	107.7	2.23982E-001	-2.21276E-006	0.00000E+000	2.23997E-001	0.00000E+000	9	...........	1467.52
	1077	107.8	2.22971E-001	-2.25769E-006	0.00000E+000	2.22998E-001	0.00000E+000	9	...........	1467.52
	1078	107.9	2.21976E-001	-2.30126E-006	0.00000E+000	2.21998E-001	0.00000E+000	9	...........	1467.52
	1079	108	2.20974E-001	-2.35116E-006	0.00000E+000	2.20998E-001	0.00000E+000	9	...........	1467.52
	1080	108.1	2.19973E-001	-2.39724E-006	0.00000E+000	2.19999E-001	0.00000E+000	9	...........	1467.52
	1081	108.2	2.18972E-001	-2.44916E-006	0.00000E+000	2.18999E-001	0.00000E+000	9	...........	1467.52
	1082	108.3	2.17994E-001	-2.49294E-006	0.00000E+000	2.17999E-001	0.00000E+000	9	...........	1467.52
	1083	108.4	2.16960E-001	-2.53768E-006	0.00000E+000	2.17000E-001	0.00000E+000	9	...........	1467.52
	1084	108.5	2.15964E-001	-2.58532E-006	0.00000E+000	2.16000E-001	0.00000E+000	9	...........	1467.52
	1085	108.6	2.14971E-001	-2.63070E-006	0.00000E+000	2.15000E-001	0.00000E+000	9	...........	1467.85
	1086	108.7	2.13968E-001	-2.68008E-006	0.00000E+000	2.14001E-001	0.00000E+000	9	...........	1467.88
	1087	108.8	2.12966E-001	-2.73223E-006	0.00000E+000	2.13001E-001	0.00000E+000	9	...........	1467.88
	1088	108.9	2.11985E-001	-2.78093E-006	0.00000E+000	2.12001E-001	0.00000E+000	9	...........	1467.88
	1089	109	2.10979E-001	-2.82846E-006	0.00000E+000	2.11002E-001	0.00000E+000	9	...........	1467.88
	1090	109.1	2.09978E-001	-2.88003E-006	0.00000E+000	2.10002E-001	0.00000E+000	9	...........	1467.88
	1091	109.2	2.08982E-001	-2.93083E-006	0.00000E+000	2.09003E-001	0.00000E+000	9	...........	1467.88
	1092	109.3	2.07986E-001	-2.97933E-006	0.00000E+000	2.08003E-001	0.00000E+000	9	...........	1467.88
	1093	109.4	2.06976E-001	-3.02183E-006	0.00000E+000	2.07003E-001	0.00000E+000	9	...........	1467.88
	1094	109.5	2.05988E-001	-3.07913E-006	0.00000E+000	2.06004E-001	0.00000E+000	9	...........	1467.88
	1095	109.6	2.04993E-001	-3.12979E-006	0.00000E+000	2.05004E-001	0.00000E+000	9	...........	1467.72
	1096	109.7	2.03977E-001	-3.16940E-006	0.00000E+000	2.04004E-001	0.00000E+000	9	...........	1467.70
	1097	109.8	2.02983E-001	-3.22660E-006	0.00000E+000	2.03005E-001	0.00000E+000	9	...........	1467.70
	1098	109.9	2.01993E-001	-3.28128E-006	0.00000E+000	2.02005E-001	0.00000E+000	9	...........	1467.70
	1099	110	2.00987E-001	-3.33455E-006	0.00000E+000	2.01005E-001	0.00000E+000	9	...........	1467.70
	1100	110.1	1.99993E-001	-3.38790E-006	0.00000E+000	2.00006E-001	0.00000E+000	9	...........	1467.70
	1101	110.2	1.99002E-001	-3.44507E-006	0.00000E+000	1.99006E-001	0.00000E+000	9	...........	1467.70
	1102	110.3	1.97983E-001	-3.50395E-006	0.00000E+000	1.97994E-001	0.00000E+000	9	...........	1467.70
	1103	110.4	1.96989E-001	-3.55564E-006	0.00000E+000	1.96994E-001	0.00000E+000	9	...........	1467.70
	1104	110.5	1.95988E-001	-3.61101E-006	0.00000E+000	1.95995E-001	0.00000E+000	9	...........	1467.70
	1105	110.6	1.94986E-001	-3.67105E-006	0.00000E+000	1.94995E-001	0.00000E+000	9	...........	1467.54
	1106	110.7	1.93995E-001	-3.71546E-006	0.00000E+000	1.93995E-001	0.00000E+000	9	...........	1467.52
	1107	110.8	1.92999E-001	-3.76863E-006	0.00000E+000	1.92996E-001	0.00000E+000	9	...........	1467.52
	1108	110.9	1.91999E-001	-3.82821E-006	0.00000E+000	1.91996E-001	0.00000E+000	9	...........	1467.52
	1109	111	1.90966E-001	-3.88292E-006	0.00000E+000	1.90996E-001	0.00000E+000	9	...........	1467.52
	1110	111.1	1.89974E-001	-3.94148E-006	0.00000E+000	1.89997E-001	0.00000E+000	9	...........	1467.52
	1111	111.2	1.88977E-001	-3.99777E-006	0.00000E+000	1.88997E-001	0.00000E+000	9	...........	1467.52
	1112	111.3	1.87984E-001	-4.05218E-006	0.00000E+000	1.87997E-001	0.00000E+000	9	...........	1467.52
	1113	111.4	1.86985E-001	-4.11228E-006	0.00000E+000	1.86998E-001	0.00000E+000	9	...........	1467.52
	1114	111.5	1.85986E-001	-4.17227E-006	0.00000E+000	1.85998E-001	0.00000E+000	9	...........	1467.52
	1115	111.6	1.84983E-001	-4.22626E-006	0.00000E+000	1.84998E-001	0.00000E+000	9	...........	1467.52
	1116	111.7	1.83982E-001	-4.28174E-006	0.00000E+000	1.83999E-001	0.00000E+000	9	...........	1467.52
	1117	111.8	1.82984E-001	-4.33698E-006	0.00000E+000	1.82999E-001	0.00000E+000	9	...........	1467.52
	1118	111.9	1.81999E-001	-4.39378E-006	0.00000E+000	1.81999E-001	0.00000E+000	9	...........	1467.52
	1119	112	1.80996E-001	-4.45102E-006	0.00000E+000	1.81000E-001	0.00000E+000	9	...........	1467.52
	1120	112.1	1.79976E-001	-4.50799E-006	0.00000E+000	1.80000E-001	0.00000E+000	9	...........	1467.52
	1121	112.2	1.78968E-001	-4.56450E-006	0.00000E+000	1.79000E-001	0.00000E+000	9	...........	1467.52
	1122	112.3	1.77974E-001	-4.61994E-006	0.00000E+000	1.78001E-001	0.00000E+000	9	...........	1467.52
	1123	112.4	1.76973E-001	-4.67516E-006	0.00000E+000	1.77001E-001	0.00000E+000	9	...........	1467.52
	1124	112.5	1.75989E-001	-4.72923E-006	0.00000E+000	1.76002E-001	0.00000E+000	9	...........	1467.52
	1125	112.6	1.74988E-001	-4.78509E-006	0.00000E+000	1.75002E-001	0.00000E+000	9	...........	1467.93
	1126	112.7	1.73984E-001	-4.84296E-006	0.00000E+000	1.74002E-001	0.00000E+000	9	...........	1467.97
	1127	112.8	1.72982E-001	-4.89168E-006	0.00000E+000	1.73003E-001	0.00000E+000	9	...........	1467.97
	1128	112.9	1.71983E-001	-4.94904E-006	0.00000E+000	1.72003E-001	0.00000E+000	9	...........	1467.97
	1129	113	1.70989E-001	-5.00181E-006	0.00000E+000	1.71003E-001	0.00000E+000	9	...........	1467.97
	1130	113.1	1.70004E-001	-5.05923E-006	0.00000E+000	1.70004E-001	0.00000E+000	9	...........	1467.97
	1131	113.2	1.68998E-001	-5.11495E-006	0.00000E+000	1.69004E-001	0.00000E+000	9	...........	1467.97
	1132	113.3	1.68003E-001	-5.16854E-006	0.00000E+000	1.68004E-001	0.00000E+000	9	...........	1467.97
	1133	113.4	1.67005E-001	-5.21854E-006	0.00000E+000	1.67005E-001	0.00000E+000	9	...........	1467.97
	1134	113.5	1.65967E-001	-5.27175E-006	0.00000E+000	1.66005E-001	0.00000E+000	9	...........	1467.97
	1135	113.6	1.64970E-001	-5.32630E-006	0.00000E+000	1.65005E-001	0.00000E+000	9	...........	1467.56
	1136	113.7	1.63986E-001	-5.38338E-006	0.00000E+000	1.64006E-001	0.00000E+000	9	...........	1467.52
	1137	113.8	1.62985E-001	-5.43807E-006	0.00000E+000	1.63006E-001	0.00000E+000	9	...........	1467.52
	1138	113.9	1.61976E-001	-5.49001E-006	0.00000E+000	1.61994E-001	0.00000E+000	9	...........	1467.52
	1139	114	1.60978E-001	-5.54120E-006	0.00000E+000	1.60994E-001	0.00000E+000	9	...........	1467.52
	1140	114.1	1.59978E-001	-5.59437E-006	0.00000E+000	1.59995E-001	0.00000E+000	9	...........	1467.52
	1141	114.2	1.58970E-001	-5.65071E-006	0.00000E+000	1.58995E-001	0.00000E+000	9	...........	1467.52
	1142	114.3	1.57983E-001	-5.70180E-006	0.00000E+000	1.57995E-001	0.00000E+000	9	...........	1467.52
	1143	114.4	1.56988E-001	-5.75292E-006	0.00000E+000	1.56996E-001	0.00000E+000	9	...........	1467.52
	1144	114.5	1.55979E-001	-5.80462E-006	0.00000E+000	1.55996E-001	0.00000E+000	9	...........	1467.52
	1145	114.6	1.54986E-001	-5.86013E-006	0.00000E+000	1.54996E-001	0.00000E+000	9	...........	1467.52
	1146	114.7	1.53971E-001	-5.91374E-006	0.00000E+000	1.53997E-001	0.00000E+000	9	...........	1467.52
	1147	114.8	1.52964E-001	-5.96429E-006	0.00000E+000	1.52997E-001	0.00000E+000	9	...........	1467.52
	1148	114.9	1.51965E-001	-6.01699E-006	0.00000E+000	1.51997E-001	0.00000E+000	9	...........	1467.52
	1149	115	1.50966E-001	-6.06873E-006	0.00000E+000	1.50998E-001	0.00000E+000	9	...........	1467.52
	1150	115.1	1.49977E-001	-6.11979E-006	0.00000E+000	1.49998E-001	0.00000E+000	9	...........	1467.52
	1151	115.2	1.48978E-001	-6.17231E-006	0.00000E+000	1.48998E-001	0.00000E+000	9	...........	1467.52
	1152	115.3	1.47987E-001	-6.22747E-006	0.00000E+000	1.47999E-001	0.00000E+000	9	...........	1467.52
	1153	115.4	1.46991E-001	-6.27982E-006	0.00000E+000	1.46999E-001	0.00000E+000	9	...........	1467.52
	1154	115.5	1.45991E-001	-6.33347E-006	0.00000E+000	1.46000E-001	0.00000E+000	9	...........	1467.52
	1155	115.6	1.44990E-001	-6.38402E-006	0.00000E+000	1.45000E-001	0.00000E+000	9	...........	1467.52
	1156	115.7	1.43989E-001	-6.43974E-006	0.00000E+000	1.44000E-001	0.00000E+000	9	...........	1467.52
	1157	115.8	1.43000E-001	-6.48529E-006	0.00000E+000	1.43001E-001	0.00000E+000	9	...........	1467.52
	1158	115.9	1.42000E-001	-6.53776E-006	0.00000E+000	1.42001E-001	0.00000E+000	9	...........	1467.52
	1159	116	1.41004E-001	-6.59184E-006	0.00000E+000	1.41001E-001	0.00000E+000	9	...........	1467.52
	1160	116.1	1.39981E-001	-6.64278E-006	0.00000E+000	1.40002E-001	0.00000E+000	9	...........	1467.52
	1161	116.2	1.38986E-001	-6.69429E-006	0.00000E+000	1.39002E-001	0.00000E+000	9	...........	1467.52
	1162	116.3	1.37989E-001	-6.75350E-006	0.00000E+000	1.38002E-001	0.00000E+000	9	...........	1467.52
	1163	116.4	1.36986E-001	-6.80657E-006	0.00000E+000	1.37003E-001	0.00000E+000	9	...........	1467.52
	1164	116.5	1.35993E-001	-6.86359E-006	0.00000E+000	1.36003E-001	0.00000E+000	9	...........	1467.52
	1165	116.6	1.34996E-001	-6.91376E-006	0.00000E+000	1.35003E-001	0.00000E+000	9	...........	1467.94
	1166	116.7	1.33990E-001	-6.96891E-006	0.00000E+000	1.34004E-001	0.00000E+000	9	...........	1467.97
	1167	116.8	1.32999E-001	-7.02139E-006	0.00000E+000	1.33004E-001	0.00000E+000	9	...........	1467.97
	1168	116.9	1.32004E-001	-7.08297E-006	0.00000E+000	1.32004E-001	0.00000E+000	9	...........	1467.97
	1169	117	1.30997E-001	-7.14235E-006	0.00000E+000	1.31005E-001	0.00000E+000	9	...........	1467.97
	1170	117.1	1.29993E-001	-7.19144E-006	0.00000E+000	1.30005E-001	0.00000E+000	9	...........	1467.97
	1171	117.2	1.28997E-001	-7.24662E-006	0.00000E+000	1.29005E-001	0.00000E+000	9	...........	1467.97
	1172	117.3	1.27995E-001	-7.30704E-006	0.00000E+000	1.28006E-001	0.00000E+000	9	...........	1467.97
	1173	117.4	1.26980E-001	-7.36137E-006	0.00000E+000	1.27006E-001	0.00000E+000	9	...........	1467.97
	1174	117.5	1.25970E-001	-7.42414E-006	0.00000E+000	1.25994E-001	0.00000E+000	9	...........	1467.97
	1175	117.6	1.24978E-001	-7.47587E-006	0.00000E+000	1.24994E-001	0.00000E+000	9	...........	1467.56
	1176	117.7	1.23977E-001	-7.53476E-006	0.00000E+000	1.23995E-001	0.00000E+000	9	...........	1467.52
	1177	117.8	1.22978E-001	-7.58824E-006	0.00000E+000	1.22995E-001	0.00000E+000	9	...........	1467.52
	1178	117.9	1.21983E-001	-7.64294E-006	0.00000E+000	1.21995E-001	0.00000E+000	9	...........	1467.52
	1179	118	1.20979E-001	-7.69975E-006	0.00000E+000	1.20996E-001	0.00000E+000	9	...........	1467.52
	1180	118.1	1.19985E-001	-7.75682E-006	0.00000E+000	1.19996E-001	0.00000E+000	9	...........	1467.52
	1181	118.2	1.18988E-001	-7.81989E-006	0.00000E+000	1.18996E-001	0.00000E+000	9	...........	1467.52
	1182	118.3	1.17984E-001	-7.87900E-006	0.00000E+000	1.17997E-001	0.00000E+000	9	...........	1467.52
	1183	118.4	1.16991E-001	-7.93278E-006	0.00000E+000	1.16997E-001	0.00000E+000	9	...........	1467.52
	1184	118.5	1.16007E-001	-7.98669E-006	0.00000E+000	1.15997E-001	0.00000E+000	9	...........	1467.52
	1185	118.6	1.14994E-001	-8.04322E-006	0.00000E+000	1.14998E-001	0.00000E+000	9	...........	1467.52
	1186	118.7	1.13969E-001	-8.10815E-006	0.00000E+000	1.13998E-001	0.00000E+000	9	...........	1467.52
	1187	118.8	1.12978E-001	-8.16846E-006	0.00000E+000	1.12999E-001	0.00000E+000	9	...........	1467.52
	1188	118.9	1.11980E-001	-8.23118E-006	0.00000E+000	1.11999E-001	0.00000E+000	9	...........	1467.52
	1189	119	1.10983E-001	-8.29566E-006	0.00000E+000	1.10999E-001	0.00000E+000	9	...........	1467.52
	1190	119.1	1.09990E-001	-8.35917E-006	0.00000E+000	1.10000E-001	0.00000E+000	9	...........	1467.52
	1191	119.2	1.08997E-001	-8.41605E-006	0.00000E+000	1.09000E-001	0.00000E+000	9	...........	1467.52
	1192	119.3	1.07988E-001	-8.47913E-006	0.00000E+000	1.08000E-001	0.00000E+000	9	...........	1467.52
	1193	119.4	1.06982E-001	-8.53520E-006	0.00000E+000	1.07001E-001	0.00000E+000	9	...........	1467.52
	1194	119.5	1.05984E-001	-8.59628E-006	0.00000E+000	1.06001E-001	0.00000E+000	9	...........	1467.52
	1195	119.6	1.04984E-001	-8.65291E-006	0.00000E+000	1.05001E-001	0.00000E+000	9	...........	1467.52
	1196	119.7	1.04005E-001	-8.70798E-006	0.00000E+000	1.04002E-001	0.00000E+000	9	...........	1467.52
	1197	119.8	1.03005E-001	-8.76510E-006	0.00000E+000	1.03002E-001	0.00000E+000	9	...........	1467.52
	1198	119.9	1.01985E-001	-8.82727E-006	0.00000E+000	1.02002E-001	0.00000E+000	9	...........	1467.52
	1199	120	1.00995E-001	-8.88354E-006	0.00000E+000	1.01003E-001	0.00000E+000	9	...........	1467.52
	1200	120.1	9.99876E-002	-8.93944E-006	0.00000E+000	1.00003E-001	0.00000E+000	9	...........	1467.52
CURVE4	TABLE
	Pt	T	Vf	Im	Vu	Sig	Ach	IERange	Over	Temp
	#	s	V vs. Ref.	A	V	V	V	#	bits	deg C
	1201	120.2	9.99911E-002	-8.71136E-006	0.00000E+000	1.00003E-001	0.00000E+000	9	...........	1467.52