File: input/ECSA_test/CV_ECSA_#2_#2.DTA
EXPLAIN
TAG	CV
TITLE	LABEL	ECSA	Test Identifier
DATE	LABEL	2/13/2024	Date
TIME	LABEL	12:02:14	Time
NOTES	NOTES	1	Notes...

PSTAT	PSTAT	IFC1010-36068	Potentiostat
VINIT	POTEN	1.00000E-001	F	Initial E (V)
VLIMIT1	POTEN	3.00000E-001	F	Scan Limit 1 (V)
VLIMIT2	POTEN	1.00000E-001	F	Scan Limit 2 (V)
VFINAL	POTEN	1.00000E-001	F	Final E (V)
SCANRATE	QUANT	2.00000E+001	A Real Number
STEPSIZE	QUANT	1.00000E+000	Step Size (mV)
CYCLES	IQUANT	3	Cycles (#)
IMODE	SELECTOR	1	I/E Range Mode
IRANGE	QUANT	3.00000E-001	Max Current (mA)
AREA	QUANT	1.00000E+000	Sample Area (cm^2)
EQDELAY	QUANT	0.00000E+000	Equil. Time (s)
IRCOMP	SELECTOR	0	IRComp
PFCOR	QUANT	5.00000E+001	PF Corr. (ohm)
SAMPLINGMODE	SELECTOR	2	Sampling Mode
EOC	QUANT	0.3246219	Open Circuit (V)
ELECTRODETYPE	SELECTOR	0	Electrode Type
STRIPPING	TOGGLE	F	Used for Stripping
SEQUENCER	TOGGLE	TRUE	Run as Sequence
PSTATMODEL	IQUANT	64	Pstat Model
PSTATSECTION	LABEL	IFC1010-36068	Pstat Section
PSTATSERIALNO	LABEL	36068	Pstat Serial Number
CTRLMODE	IQUANT	1	Control Mode
ELECTROMETER	IQUANT	0	RE=0 or CS=1
IESTAB	IQUANT	2	I/E Stability
CASPEED	IQUANT	4	Control Amp Speed
CONVENTION	IQUANT	1	Current Convention
ICHRANGE	IQUANT	2	Ich Range
ICHRANGEMODE	TOGGLE	F	Ich Auto Range
ICHOFFSETENABLE	TOGGLE	F	Ich Offset Enable
ICHOFFSET	QUANT	0	Ich Offset (V)
ICHFILTER	IQUANT	3	Ich Filter
VCHRANGE	IQUANT	2	Vch Range
VCHRANGEMODE	TOGGLE	F	Vch Auto Range
VCHOFFSETENABLE	TOGGLE	F	Vch Offset Enable
VCHOFFSET	QUANT	0	Vch Offset (V)
VCHFILTER	IQUANT	3	Vch Filter
IERANGELOWERLIMIT	IQUANT	4	I/E Range Lower Limit
IERANGEMODE	TOGGLE	F	I/E AutoRange
IERANGE	IQUANT	9	I/E Range
ACHSELECT	IQUANT	0	Ach Select
ACHRANGE	IQUANT	2	Ach Range
ACHOFFSETENABLE	TOGGLE	F	Ach Offset Enable
ACHOFFSET	QUANT	0	Ach Offset (V)
ACHFILTER	IQUANT	1	Ach Filter
SENSECABLEID	IQUANT	13	Sense Cable ID
PWRCABLEID	IQUANT	13	Power Cable ID
DCCALDATE	LABEL	8/11/2023	DC Calibration Date
ACCALDATE	LABEL	6/2/2023	AC Calibration Date
FRAMEWORKVERSION	LABEL	7.10.3	Framework Version
INSTRUMENTVERSION	LABEL	4.91	Instrument Version
COMMVERSION	LABEL	3.10	Communications Version
CPUPLDVERSION	LABEL	2.22	CPU PLD Version
CTRLPLDVERSION	LABEL	0.00	CTRL PLD Version
PSTATPLDVERSION	LABEL	0.00	PSTAT PLD Version
CURVE1	TABLE
	Pt	T	Vf	Im	Vu	Sig	Ach	IERange	Over	Temp
	#	s	V vs. Ref.	A	V	V	V	#	bits	deg C
	0	0.05	9.99879E-002	-1.11921E-006	0.00000E+000	1.00003E-001	0.00000E+000	9	...........	1467.70
	1	0.1	1.00981E-001	-7.10278E-007	0.00000E+000	1.01003E-001	0.00000E+000	9	...........	1467.70
	2	0.15	1.01978E-001	-6.52604E-007	0.00000E+000	1.02002E-001	0.00000E+000	9	...........	1467.70
	3	0.2	1.03001E-001	-5.92374E-007	0.00000E+000	1.03002E-001	0.00000E+000	9	...........	1467.70
	4	0.25	1.03994E-001	-5.56589E-007	0.00000E+000	1.04002E-001	0.00000E+000	9	...........	1467.70
	5	0.3	1.04972E-001	-5.01694E-007	0.00000E+000	1.05001E-001	0.00000E+000	9	...........	1467.70
	6	0.35	1.05978E-001	-4.77693E-007	0.00000E+000	1.06001E-001	0.00000E+000	9	...........	1467.70
	7	0.4	1.06975E-001	-4.27667E-007	0.00000E+000	1.07001E-001	0.00000E+000	9	...........	1467.70
	8	0.45	1.07975E-001	-3.99608E-007	0.00000E+000	1.08000E-001	0.00000E+000	9	...........	1467.70
	9	0.5	1.08981E-001	-3.56553E-007	0.00000E+000	1.09000E-001	0.00000E+000	9	...........	1467.70
	10	0.55	1.09982E-001	-3.34397E-007	0.00000E+000	1.10000E-001	0.00000E+000	9	...........	1467.70
	11	0.6	1.10981E-001	-2.94866E-007	0.00000E+000	1.10999E-001	0.00000E+000	9	...........	1467.70
	12	0.65	1.11977E-001	-2.75989E-007	0.00000E+000	1.11999E-001	0.00000E+000	9	...........	1467.70
	13	0.7	1.12973E-001	-2.36213E-007	0.00000E+000	1.12999E-001	0.00000E+000	9	...........	1467.70
	14	0.75	1.13964E-001	-2.15403E-007	0.00000E+000	1.13998E-001	0.00000E+000	9	...........	1467.70
	15	0.8	1.14980E-001	-1.78172E-007	0.00000E+000	1.14998E-001	0.00000E+000	9	...........	1467.70
	16	0.85	1.15992E-001	-1.66122E-007	0.00000E+000	1.15997E-001	0.00000E+000	9	...........	1467.70
	17	0.9	1.16987E-001	-1.27013E-007	0.00000E+000	1.16997E-001	0.00000E+000	9	...........	1467.70
	18	0.95	1.17974E-001	-1.09115E-007	0.00000E+000	1.17997E-001	0.00000E+000	9	...........	1467.70
	19	1	1.18980E-001	-7.04839E-008	0.00000E+000	1.18996E-001	0.00000E+000	9	...........	1467.70
	20	1.05	1.19979E-001	-5.08516E-008	0.00000E+000	1.19996E-001	0.00000E+000	9	...........	1467.70
	21	1.1	1.20977E-001	-1.51000E-008	0.00000E+000	1.20996E-001	0.00000E+000	9	...........	1467.70
	22	1.15	1.21985E-001	-3.88310E-009	0.00000E+000	1.21995E-001	0.00000E+000	9	...........	1467.70
	23	1.2	1.22977E-001	3.20687E-008	0.00000E+000	1.22995E-001	0.00000E+000	9	...........	1467.70
	24	1.25	1.23977E-001	4.59758E-008	0.00000E+000	1.23995E-001	0.00000E+000	9	...........	1467.70
	25	1.3	1.24974E-001	7.67916E-008	0.00000E+000	1.24994E-001	0.00000E+000	9	...........	1467.70
	26	1.35	1.25971E-001	9.15102E-008	0.00000E+000	1.25994E-001	0.00000E+000	9	...........	1467.70
	27	1.4	1.26977E-001	1.29452E-007	0.00000E+000	1.27006E-001	0.00000E+000	9	...........	1467.70
	28	1.45	1.27985E-001	1.38857E-007	0.00000E+000	1.28006E-001	0.00000E+000	9	...........	1467.70
	29	1.5	1.28992E-001	1.75075E-007	0.00000E+000	1.29005E-001	0.00000E+000	9	...........	1467.70
	30	1.55	1.29990E-001	1.84047E-007	0.00000E+000	1.30005E-001	0.00000E+000	9	...........	1467.70
	31	1.6	1.31001E-001	2.17653E-007	0.00000E+000	1.31005E-001	0.00000E+000	9	...........	1467.70
	32	1.65	1.31997E-001	2.27947E-007	0.00000E+000	1.32004E-001	0.00000E+000	9	...........	1467.70
	33	1.7	1.32990E-001	2.56906E-007	0.00000E+000	1.33004E-001	0.00000E+000	9	...........	1467.70
	34	1.75	1.33986E-001	2.66077E-007	0.00000E+000	1.34004E-001	0.00000E+000	9	...........	1467.70
	35	1.8	1.34982E-001	3.00895E-007	0.00000E+000	1.35003E-001	0.00000E+000	9	...........	1467.70
	36	1.85	1.35983E-001	3.10500E-007	0.00000E+000	1.36003E-001	0.00000E+000	9	...........	1467.61
	37	1.9	1.36979E-001	3.43039E-007	0.00000E+000	1.37003E-001	0.00000E+000	9	...........	1467.52
	38	1.95	1.37984E-001	3.53089E-007	0.00000E+000	1.38002E-001	0.00000E+000	9	...........	1467.52
	39	2	1.38987E-001	3.88596E-007	0.00000E+000	1.39002E-001	0.00000E+000	9	...........	1467.52
	40	2.05	1.39974E-001	3.97689E-007	0.00000E+000	1.40002E-001	0.00000E+000	9	...........	1467.52
	41	2.1	1.40996E-001	4.23647E-007	0.00000E+000	1.41001E-001	0.00000E+000	9	...........	1467.52
	42	2.15	1.41995E-001	4.33619E-007	0.00000E+000	1.42001E-001	0.00000E+000	9	...........	1467.52
	43	2.2	1.42986E-001	4.63823E-007	0.00000E+000	1.43001E-001	0.00000E+000	9	...........	1467.52
	44	2.25	1.43981E-001	4.74229E-007	0.00000E+000	1.44000E-001	0.00000E+000	9	...........	1467.52
	45	2.3	1.44977E-001	5.06356E-007	0.00000E+000	1.45000E-001	0.00000E+000	9	...........	1467.52
	46	2.35	1.45971E-001	5.11281E-007	0.00000E+000	1.46000E-001	0.00000E+000	9	...........	1467.52
	47	2.4	1.46981E-001	5.40118E-007	0.00000E+000	1.46999E-001	0.00000E+000	9	...........	1467.52
	48	2.45	1.47978E-001	5.45031E-007	0.00000E+000	1.47999E-001	0.00000E+000	9	...........	1467.52
	49	2.5	1.48972E-001	5.77159E-007	0.00000E+000	1.48998E-001	0.00000E+000	9	...........	1467.52
	50	2.55	1.49971E-001	5.91033E-007	0.00000E+000	1.49998E-001	0.00000E+000	9	...........	1467.52
	51	2.6	1.50962E-001	6.15468E-007	0.00000E+000	1.50998E-001	0.00000E+000	9	...........	1467.52
	52	2.65	1.51961E-001	6.22115E-007	0.00000E+000	1.51997E-001	0.00000E+000	9	...........	1467.52
	53	2.7	1.52960E-001	6.55855E-007	0.00000E+000	1.52997E-001	0.00000E+000	9	...........	1467.52
	54	2.75	1.53970E-001	6.62303E-007	0.00000E+000	1.53997E-001	0.00000E+000	9	...........	1467.52
	55	2.8	1.54983E-001	6.91095E-007	0.00000E+000	1.54996E-001	0.00000E+000	9	...........	1467.52
	56	2.85	1.55982E-001	6.95931E-007	0.00000E+000	1.55996E-001	0.00000E+000	9	...........	1467.47
	57	2.9	1.56982E-001	7.26113E-007	0.00000E+000	1.56996E-001	0.00000E+000	9	...........	1467.43
	58	2.95	1.57975E-001	7.27870E-007	0.00000E+000	1.57995E-001	0.00000E+000	9	...........	1467.43
	59	3	1.58961E-001	7.60342E-007	0.00000E+000	1.58995E-001	0.00000E+000	9	...........	1467.43
	60	3.05	1.59970E-001	7.65533E-007	0.00000E+000	1.59995E-001	0.00000E+000	9	...........	1467.43
	61	3.1	1.60963E-001	7.93092E-007	0.00000E+000	1.60994E-001	0.00000E+000	9	...........	1467.43
	62	3.15	1.61959E-001	8.00251E-007	0.00000E+000	1.61994E-001	0.00000E+000	9	...........	1467.43
	63	3.2	1.62978E-001	8.37126E-007	0.00000E+000	1.63006E-001	0.00000E+000	9	...........	1467.43
	64	3.25	1.63981E-001	8.37370E-007	0.00000E+000	1.64006E-001	0.00000E+000	9	...........	1467.43
	65	3.3	1.64965E-001	8.66063E-007	0.00000E+000	1.65005E-001	0.00000E+000	9	...........	1467.43
	66	3.35	1.65958E-001	8.72066E-007	0.00000E+000	1.66005E-001	0.00000E+000	9	...........	1467.43
	67	3.4	1.66988E-001	9.00125E-007	0.00000E+000	1.67005E-001	0.00000E+000	9	...........	1467.43
	68	3.45	1.67993E-001	9.07406E-007	0.00000E+000	1.68004E-001	0.00000E+000	9	...........	1467.43
	69	3.5	1.68991E-001	9.35309E-007	0.00000E+000	1.69004E-001	0.00000E+000	9	...........	1467.43
	70	3.55	1.69992E-001	9.40690E-007	0.00000E+000	1.70004E-001	0.00000E+000	9	...........	1467.43
	71	3.6	1.70986E-001	9.69149E-007	0.00000E+000	1.71003E-001	0.00000E+000	9	...........	1467.43
	72	3.65	1.71982E-001	9.75230E-007	0.00000E+000	1.72003E-001	0.00000E+000	9	...........	1467.43
	73	3.7	1.72981E-001	1.00264E-006	0.00000E+000	1.73003E-001	0.00000E+000	9	...........	1467.43
	74	3.75	1.73982E-001	1.01160E-006	0.00000E+000	1.74002E-001	0.00000E+000	9	...........	1467.43
	75	3.8	1.74983E-001	1.04007E-006	0.00000E+000	1.75002E-001	0.00000E+000	9	...........	1467.43
	76	3.85	1.75987E-001	1.04509E-006	0.00000E+000	1.76002E-001	0.00000E+000	9	...........	1467.48
	77	3.9	1.76972E-001	1.07467E-006	0.00000E+000	1.77001E-001	0.00000E+000	9	...........	1467.52
	78	3.95	1.77964E-001	1.07535E-006	0.00000E+000	1.78001E-001	0.00000E+000	9	...........	1467.52
	79	4	1.78960E-001	1.10237E-006	0.00000E+000	1.79000E-001	0.00000E+000	9	...........	1467.52
	80	4.05	1.79975E-001	1.10593E-006	0.00000E+000	1.80000E-001	0.00000E+000	9	...........	1467.52
	81	4.1	1.80981E-001	1.13507E-006	0.00000E+000	1.81000E-001	0.00000E+000	9	...........	1467.52
	82	4.15	1.81989E-001	1.14243E-006	0.00000E+000	1.81999E-001	0.00000E+000	9	...........	1467.52
	83	4.2	1.82985E-001	1.17543E-006	0.00000E+000	1.82999E-001	0.00000E+000	9	...........	1467.52
	84	4.25	1.83986E-001	1.17718E-006	0.00000E+000	1.83999E-001	0.00000E+000	9	...........	1467.52
	85	4.3	1.84979E-001	1.20416E-006	0.00000E+000	1.84998E-001	0.00000E+000	9	...........	1467.52
	86	4.35	1.85980E-001	1.21105E-006	0.00000E+000	1.85998E-001	0.00000E+000	9	...........	1467.52
	87	4.4	1.86977E-001	1.23526E-006	0.00000E+000	1.86998E-001	0.00000E+000	9	...........	1467.52
	88	4.45	1.87981E-001	1.24047E-006	0.00000E+000	1.87997E-001	0.00000E+000	9	...........	1467.52
	89	4.5	1.88968E-001	1.26683E-006	0.00000E+000	1.88997E-001	0.00000E+000	9	...........	1467.52
	90	4.55	1.89966E-001	1.27046E-006	0.00000E+000	1.89997E-001	0.00000E+000	9	...........	1467.52
	91	4.6	1.90970E-001	1.29976E-006	0.00000E+000	1.90996E-001	0.00000E+000	9	...........	1467.52
	92	4.65	1.91997E-001	1.30559E-006	0.00000E+000	1.91996E-001	0.00000E+000	9	...........	1467.52
	93	4.7	1.92999E-001	1.33989E-006	0.00000E+000	1.92996E-001	0.00000E+000	9	...........	1467.52
	94	4.75	1.93987E-001	1.33785E-006	0.00000E+000	1.93995E-001	0.00000E+000	9	...........	1467.52
	95	4.8	1.94979E-001	1.36306E-006	0.00000E+000	1.94995E-001	0.00000E+000	9	...........	1467.52
	96	4.85	1.95980E-001	1.36934E-006	0.00000E+000	1.95995E-001	0.00000E+000	9	...........	1467.52
	97	4.9	1.96979E-001	1.39750E-006	0.00000E+000	1.96994E-001	0.00000E+000	9	...........	1467.52
	98	4.95	1.97974E-001	1.40057E-006	0.00000E+000	1.97994E-001	0.00000E+000	9	...........	1467.52
	99	5	1.98998E-001	1.42948E-006	0.00000E+000	1.99006E-001	0.00000E+000	9	...........	1467.52
	100	5.05	1.99993E-001	1.43041E-006	0.00000E+000	2.00006E-001	0.00000E+000	9	...........	1467.52
	101	5.1	2.00969E-001	1.45651E-006	0.00000E+000	2.01005E-001	0.00000E+000	9	...........	1467.52
	102	5.15	2.01969E-001	1.45977E-006	0.00000E+000	2.02005E-001	0.00000E+000	9	...........	1467.52
	103	5.2	2.02972E-001	1.48709E-006	0.00000E+000	2.03005E-001	0.00000E+000	9	...........	1467.52
	104	5.25	2.03982E-001	1.49430E-006	0.00000E+000	2.04004E-001	0.00000E+000	9	...........	1467.52
	105	5.3	2.04993E-001	1.52153E-006	0.00000E+000	2.05004E-001	0.00000E+000	9	...........	1467.52
	106	5.35	2.05984E-001	1.52662E-006	0.00000E+000	2.06004E-001	0.00000E+000	9	...........	1467.52
	107	5.4	2.06968E-001	1.55018E-006	0.00000E+000	2.07003E-001	0.00000E+000	9	...........	1467.52
	108	5.45	2.07976E-001	1.55264E-006	0.00000E+000	2.08003E-001	0.00000E+000	9	...........	1467.52
	109	5.5	2.08979E-001	1.57748E-006	0.00000E+000	2.09003E-001	0.00000E+000	9	...........	1467.52
	110	5.55	2.09972E-001	1.59140E-006	0.00000E+000	2.10002E-001	0.00000E+000	9	...........	1467.52
	111	5.6	2.10967E-001	1.61796E-006	0.00000E+000	2.11002E-001	0.00000E+000	9	...........	1467.52
	112	5.65	2.11976E-001	1.61825E-006	0.00000E+000	2.12001E-001	0.00000E+000	9	...........	1467.52
	113	5.7	2.12962E-001	1.64134E-006	0.00000E+000	2.13001E-001	0.00000E+000	9	...........	1467.52
	114	5.75	2.13956E-001	1.65085E-006	0.00000E+000	2.14001E-001	0.00000E+000	9	...........	1467.52
	115	5.8	2.14961E-001	1.67627E-006	0.00000E+000	2.15000E-001	0.00000E+000	9	...........	1467.52
	116	5.85	2.15959E-001	1.68215E-006	0.00000E+000	2.16000E-001	0.00000E+000	9	...........	1467.52
	117	5.9	2.16956E-001	1.71084E-006	0.00000E+000	2.17000E-001	0.00000E+000	9	...........	1467.52
	118	5.95	2.17988E-001	1.71369E-006	0.00000E+000	2.17999E-001	0.00000E+000	9	...........	1467.52
	119	6	2.18969E-001	1.73598E-006	0.00000E+000	2.18999E-001	0.00000E+000	9	...........	1467.52
	120	6.05	2.19969E-001	1.73890E-006	0.00000E+000	2.19999E-001	0.00000E+000	9	...........	1467.52
	121	6.1	2.20976E-001	1.76446E-006	0.00000E+000	2.20998E-001	0.00000E+000	9	...........	1467.52
	122	6.15	2.21973E-001	1.76895E-006	0.00000E+000	2.21998E-001	0.00000E+000	9	...........	1467.52
	123	6.2	2.22973E-001	1.79654E-006	0.00000E+000	2.22998E-001	0.00000E+000	9	...........	1467.52
	124	6.25	2.23975E-001	1.80011E-006	0.00000E+000	2.23997E-001	0.00000E+000	9	...........	1467.52
	125	6.3	2.24963E-001	1.82857E-006	0.00000E+000	2.24997E-001	0.00000E+000	9	...........	1467.52
	126	6.35	2.25958E-001	1.83388E-006	0.00000E+000	2.25997E-001	0.00000E+000	9	...........	1467.52
	127	6.4	2.26952E-001	1.86433E-006	0.00000E+000	2.26996E-001	0.00000E+000	9	...........	1467.52
	128	6.45	2.27961E-001	1.86497E-006	0.00000E+000	2.27996E-001	0.00000E+000	9	...........	1467.52
	129	6.5	2.28963E-001	1.88925E-006	0.00000E+000	2.28996E-001	0.00000E+000	9	...........	1467.52
	130	6.55	2.29959E-001	1.89499E-006	0.00000E+000	2.29995E-001	0.00000E+000	9	...........	1467.52
	131	6.6	2.30970E-001	1.91942E-006	0.00000E+000	2.30995E-001	0.00000E+000	9	...........	1467.52
	132	6.65	2.31978E-001	1.92464E-006	0.00000E+000	2.31994E-001	0.00000E+000	9	...........	1467.52
	133	6.7	2.32977E-001	1.95495E-006	0.00000E+000	2.32994E-001	0.00000E+000	9	...........	1467.52
	134	6.75	2.33974E-001	1.96010E-006	0.00000E+000	2.33994E-001	0.00000E+000	9	...........	1467.52
	135	6.8	2.34969E-001	1.99134E-006	0.00000E+000	2.35006E-001	0.00000E+000	9	...........	1467.52
	136	6.85	2.35961E-001	1.98757E-006	0.00000E+000	2.36006E-001	0.00000E+000	9	...........	1467.52
	137	6.9	2.36973E-001	2.01192E-006	0.00000E+000	2.37005E-001	0.00000E+000	9	...........	1467.52
	138	6.95	2.37974E-001	2.01456E-006	0.00000E+000	2.38005E-001	0.00000E+000	9	...........	1467.52
	139	7	2.38971E-001	2.04159E-006	0.00000E+000	2.39005E-001	0.00000E+000	9	...........	1467.52
	140	7.05	2.39974E-001	2.04835E-006	0.00000E+000	2.40004E-001	0.00000E+000	9	...........	1467.52
	141	7.1	2.40962E-001	2.07082E-006	0.00000E+000	2.41004E-001	0.00000E+000	9	...........	1467.52
	142	7.15	2.41967E-001	2.07424E-006	0.00000E+000	2.42004E-001	0.00000E+000	9	...........	1467.52
	143	7.2	2.42982E-001	2.10160E-006	0.00000E+000	2.43003E-001	0.00000E+000	9	...........	1467.52
	144	7.25	2.43995E-001	2.10584E-006	0.00000E+000	2.44003E-001	0.00000E+000	9	...........	1467.52
	145	7.3	2.44980E-001	2.13101E-006	0.00000E+000	2.45002E-001	0.00000E+000	9	...........	1467.52
	146	7.35	2.45972E-001	2.14212E-006	0.00000E+000	2.46002E-001	0.00000E+000	9	...........	1467.52
	147	7.4	2.46962E-001	2.16741E-006	0.00000E+000	2.47002E-001	0.00000E+000	9	...........	1467.52
	148	7.45	2.47961E-001	2.17011E-006	0.00000E+000	2.48001E-001	0.00000E+000	9	...........	1467.52
	149	7.5	2.48959E-001	2.19827E-006	0.00000E+000	2.49001E-001	0.00000E+000	9	...........	1467.52
	150	7.55	2.49971E-001	2.20415E-006	0.00000E+000	2.50001E-001	0.00000E+000	9	...........	1467.52
	151	7.6	2.50973E-001	2.23518E-006	0.00000E+000	2.51000E-001	0.00000E+000	9	...........	1467.52
	152	7.65	2.51966E-001	2.23906E-006	0.00000E+000	2.52000E-001	0.00000E+000	9	...........	1467.52
	153	7.7	2.52962E-001	2.26310E-006	0.00000E+000	2.53000E-001	0.00000E+000	9	...........	1467.52
	154	7.75	2.53959E-001	2.26985E-006	0.00000E+000	2.53999E-001	0.00000E+000	9	...........	1467.52
	155	7.8	2.54950E-001	2.29495E-006	0.00000E+000	2.54999E-001	0.00000E+000	9	...........	1467.52
	156	7.85	2.55960E-001	2.30363E-006	0.00000E+000	2.55999E-001	0.00000E+000	9	...........	1467.77
	157	7.9	2.56970E-001	2.33085E-006	0.00000E+000	2.56998E-001	0.00000E+000	9	...........	1467.97
	158	7.95	2.57972E-001	2.33356E-006	0.00000E+000	2.57998E-001	0.00000E+000	9	...........	1467.97
	159	8	2.58974E-001	2.36144E-006	0.00000E+000	2.58998E-001	0.00000E+000	9	...........	1467.97
	160	8.05	2.59964E-001	2.36663E-006	0.00000E+000	2.59997E-001	0.00000E+000	9	...........	1467.97
	161	8.1	2.60959E-001	2.38786E-006	0.00000E+000	2.60997E-001	0.00000E+000	9	...........	1467.97
	162	8.15	2.61959E-001	2.39492E-006	0.00000E+000	2.61997E-001	0.00000E+000	9	...........	1467.97
	163	8.2	2.62962E-001	2.41955E-006	0.00000E+000	2.62996E-001	0.00000E+000	9	...........	1467.97
	164	8.25	2.63961E-001	2.42844E-006	0.00000E+000	2.63996E-001	0.00000E+000	9	...........	1467.97
	165	8.3	2.64962E-001	2.45392E-006	0.00000E+000	2.64995E-001	0.00000E+000	9	...........	1467.97
	166	8.35	2.65965E-001	2.45698E-006	0.00000E+000	2.65995E-001	0.00000E+000	9	...........	1467.97
	167	8.4	2.66946E-001	2.48407E-006	0.00000E+000	2.66995E-001	0.00000E+000	9	...........	1467.97
	168	8.45	2.67946E-001	2.49372E-006	0.00000E+000	2.67994E-001	0.00000E+000	9	...........	1467.97
	169	8.5	2.68981E-001	2.52336E-006	0.00000E+000	2.68994E-001	0.00000E+000	9	...........	1467.97
	170	8.55	2.69977E-001	2.53312E-006	0.00000E+000	2.69994E-001	0.00000E+000	9	...........	1467.97
	171	8.6	2.70986E-001	2.56864E-006	0.00000E+000	2.71006E-001	0.00000E+000	9	...........	1467.97
	172	8.65	2.71975E-001	2.57045E-006	0.00000E+000	2.72006E-001	0.00000E+000	9	...........	1467.97
	173	8.7	2.72969E-001	2.59715E-006	0.00000E+000	2.73005E-001	0.00000E+000	9	...........	1467.97
	174	8.75	2.73968E-001	2.60378E-006	0.00000E+000	2.74005E-001	0.00000E+000	9	...........	1467.97
	175	8.8	2.74970E-001	2.62716E-006	0.00000E+000	2.75004E-001	0.00000E+000	9	...........	1467.97
	176	8.85	2.75979E-001	2.63295E-006	0.00000E+000	2.76004E-001	0.00000E+000	9	...........	1467.92
	177	8.9	2.76978E-001	2.66597E-006	0.00000E+000	2.77004E-001	0.00000E+000	9	...........	1467.88
	178	8.95	2.77968E-001	2.67240E-006	0.00000E+000	2.78003E-001	0.00000E+000	9	...........	1467.88
	179	9	2.78970E-001	2.70011E-006	0.00000E+000	2.79003E-001	0.00000E+000	9	...........	1467.88
	180	9.05	2.79967E-001	2.70375E-006	0.00000E+000	2.80003E-001	0.00000E+000	9	...........	1467.88
	181	9.1	2.80957E-001	2.73096E-006	0.00000E+000	2.81002E-001	0.00000E+000	9	...........	1467.88
	182	9.15	2.81970E-001	2.74206E-006	0.00000E+000	2.82002E-001	0.00000E+000	9	...........	1467.88
	183	9.2	2.82982E-001	2.77219E-006	0.00000E+000	2.83002E-001	0.00000E+000	9	...........	1467.88
	184	9.25	2.83989E-001	2.77611E-006	0.00000E+000	2.84001E-001	0.00000E+000	9	...........	1467.88
	185	9.3	2.84981E-001	2.80237E-006	0.00000E+000	2.85001E-001	0.00000E+000	9	...........	1467.88
	186	9.35	2.85977E-001	2.81273E-006	0.00000E+000	2.86001E-001	0.00000E+000	9	...........	1467.88
	187	9.4	2.86975E-001	2.83805E-006	0.00000E+000	2.87000E-001	0.00000E+000	9	...........	1467.88
	188	9.45	2.87985E-001	2.84850E-006	0.00000E+000	2.88000E-001	0.00000E+000	9	...........	1467.88
	189	9.5	2.88979E-001	2.87474E-006	0.00000E+000	2.89000E-001	0.00000E+000	9	...........	1467.88
	190	9.55	2.89970E-001	2.88534E-006	0.00000E+000	2.89999E-001	0.00000E+000	9	...........	1467.88
	191	9.6	2.90957E-001	2.91642E-006	0.00000E+000	2.90999E-001	0.00000E+000	9	...........	1467.88
	192	9.65	2.91963E-001	2.93083E-006	0.00000E+000	2.91999E-001	0.00000E+000	9	...........	1467.88
	193	9.7	2.92968E-001	2.95272E-006	0.00000E+000	2.92998E-001	0.00000E+000	9	...........	1467.88
	194	9.75	2.93968E-001	2.96228E-006	0.00000E+000	2.93998E-001	0.00000E+000	9	...........	1467.88
	195	9.8	2.94989E-001	2.99511E-006	0.00000E+000	2.94998E-001	0.00000E+000	9	...........	1467.88
	196	9.85	2.95979E-001	3.00891E-006	0.00000E+000	2.95997E-001	0.00000E+000	9	...........	1467.63
	197	9.9	2.96968E-001	3.03673E-006	0.00000E+000	2.96997E-001	0.00000E+000	9	...........	1467.43
	198	9.95	2.97969E-001	3.04961E-006	0.00000E+000	2.97996E-001	0.00000E+000	9	...........	1467.43
	199	10	2.98967E-001	3.07795E-006	0.00000E+000	2.98996E-001	0.00000E+000	9	...........	1467.43
	200	10.05	2.99968E-001	3.08807E-006	0.00000E+000	2.99996E-001	0.00000E+000	9	...........	1467.43
	201	10.1	2.98979E-001	2.34332E-006	0.00000E+000	2.98996E-001	0.00000E+000	9	...........	1467.43
	202	10.15	2.97981E-001	2.22926E-006	0.00000E+000	2.97996E-001	0.00000E+000	9	...........	1467.43
	203	10.2	2.96980E-001	2.15948E-006	0.00000E+000	2.96997E-001	0.00000E+000	9	...........	1467.43
	204	10.25	2.95995E-001	2.08481E-006	0.00000E+000	2.95997E-001	0.00000E+000	9	...........	1467.43
	205	10.3	2.94998E-001	2.04074E-006	0.00000E+000	2.94998E-001	0.00000E+000	9	...........	1467.43
	206	10.35	2.93966E-001	1.98162E-006	0.00000E+000	2.93998E-001	0.00000E+000	9	...........	1467.43
	207	10.4	2.92965E-001	1.94634E-006	0.00000E+000	2.92998E-001	0.00000E+000	9	...........	1467.43
	208	10.45	2.91964E-001	1.89699E-006	0.00000E+000	2.91999E-001	0.00000E+000	9	...........	1467.43
	209	10.5	2.90970E-001	1.86366E-006	0.00000E+000	2.90999E-001	0.00000E+000	9	...........	1467.43
	210	10.55	2.89986E-001	1.81638E-006	0.00000E+000	2.89999E-001	0.00000E+000	9	...........	1467.43
	211	10.6	2.88990E-001	1.79272E-006	0.00000E+000	2.89000E-001	0.00000E+000	9	...........	1467.43
	212	10.65	2.87998E-001	1.75316E-006	0.00000E+000	2.88000E-001	0.00000E+000	9	...........	1467.43
	213	10.7	2.86987E-001	1.72454E-006	0.00000E+000	2.87000E-001	0.00000E+000	9	...........	1467.43
	214	10.75	2.85986E-001	1.68057E-006	0.00000E+000	2.86001E-001	0.00000E+000	9	...........	1467.43
	215	10.8	2.84995E-001	1.66080E-006	0.00000E+000	2.85001E-001	0.00000E+000	9	...........	1467.43
	216	10.85	2.83997E-001	1.62107E-006	0.00000E+000	2.84001E-001	0.00000E+000	9	...........	1467.43
	217	10.9	2.82991E-001	1.60015E-006	0.00000E+000	2.83002E-001	0.00000E+000	9	...........	1467.43
	218	10.95	2.81983E-001	1.56340E-006	0.00000E+000	2.82002E-001	0.00000E+000	9	...........	1467.43
	219	11	2.80971E-001	1.54597E-006	0.00000E+000	2.81002E-001	0.00000E+000	9	...........	1467.43
	220	11.05	2.79973E-001	1.50849E-006	0.00000E+000	2.80003E-001	0.00000E+000	9	...........	1467.43
	221	11.1	2.78974E-001	1.49195E-006	0.00000E+000	2.79003E-001	0.00000E+000	9	...........	1467.43
	222	11.15	2.77983E-001	1.45695E-006	0.00000E+000	2.78003E-001	0.00000E+000	9	...........	1467.43
	223	11.2	2.76989E-001	1.44162E-006	0.00000E+000	2.77004E-001	0.00000E+000	9	...........	1467.43
	224	11.25	2.75990E-001	1.40487E-006	0.00000E+000	2.76004E-001	0.00000E+000	9	...........	1467.43
	225	11.3	2.74977E-001	1.39398E-006	0.00000E+000	2.75004E-001	0.00000E+000	9	...........	1467.43
	226	11.35	2.73983E-001	1.35793E-006	0.00000E+000	2.74005E-001	0.00000E+000	9	...........	1467.43
	227	11.4	2.72988E-001	1.34554E-006	0.00000E+000	2.73005E-001	0.00000E+000	9	...........	1467.43
	228	11.45	2.71989E-001	1.30808E-006	0.00000E+000	2.72006E-001	0.00000E+000	9	...........	1467.43
	229	11.5	2.71000E-001	1.29559E-006	0.00000E+000	2.71006E-001	0.00000E+000	9	...........	1467.43
	230	11.55	2.69990E-001	1.25914E-006	0.00000E+000	2.69994E-001	0.00000E+000	9	...........	1467.43
	231	11.6	2.68991E-001	1.24891E-006	0.00000E+000	2.68994E-001	0.00000E+000	9	...........	1467.43
	232	11.65	2.67947E-001	1.21897E-006	0.00000E+000	2.67994E-001	0.00000E+000	9	...........	1467.43
	233	11.7	2.66955E-001	1.20673E-006	0.00000E+000	2.66995E-001	0.00000E+000	9	...........	1467.43
	234	11.75	2.65969E-001	1.17479E-006	0.00000E+000	2.65995E-001	0.00000E+000	9	...........	1467.43
	235	11.8	2.64968E-001	1.16112E-006	0.00000E+000	2.64995E-001	0.00000E+000	9	...........	1467.43
	236	11.85	2.63969E-001	1.12536E-006	0.00000E+000	2.63996E-001	0.00000E+000	9	...........	1467.75
	237	11.9	2.62975E-001	1.11965E-006	0.00000E+000	2.62996E-001	0.00000E+000	9	...........	1467.97
	238	11.95	2.61969E-001	1.08905E-006	0.00000E+000	2.61997E-001	0.00000E+000	9	...........	1467.97
	239	12	2.60964E-001	1.07867E-006	0.00000E+000	2.60997E-001	0.00000E+000	9	...........	1467.97
	240	12.05	2.59971E-001	1.04957E-006	0.00000E+000	2.59997E-001	0.00000E+000	9	...........	1467.97
	241	12.1	2.58978E-001	1.04085E-006	0.00000E+000	2.58998E-001	0.00000E+000	9	...........	1467.97
	242	12.15	2.57982E-001	1.01024E-006	0.00000E+000	2.57998E-001	0.00000E+000	9	...........	1467.97
	243	12.2	2.56985E-001	1.00357E-006	0.00000E+000	2.56998E-001	0.00000E+000	9	...........	1467.97
	244	12.25	2.55975E-001	9.72517E-007	0.00000E+000	2.55999E-001	0.00000E+000	9	...........	1467.97
	245	12.3	2.54961E-001	9.58488E-007	0.00000E+000	2.54999E-001	0.00000E+000	9	...........	1467.97
	246	12.35	2.53962E-001	9.39100E-007	0.00000E+000	2.53999E-001	0.00000E+000	9	...........	1467.97
	247	12.4	2.52965E-001	9.21391E-007	0.00000E+000	2.53000E-001	0.00000E+000	9	...........	1467.97
	248	12.45	2.51974E-001	8.89764E-007	0.00000E+000	2.52000E-001	0.00000E+000	9	...........	1467.97
	249	12.5	2.50980E-001	8.80092E-007	0.00000E+000	2.51000E-001	0.00000E+000	9	...........	1467.97
	250	12.55	2.49982E-001	8.52867E-007	0.00000E+000	2.50001E-001	0.00000E+000	9	...........	1467.97
	251	12.6	2.48981E-001	8.43496E-007	0.00000E+000	2.49001E-001	0.00000E+000	9	...........	1467.97
	252	12.65	2.47983E-001	8.17204E-007	0.00000E+000	2.48001E-001	0.00000E+000	9	...........	1467.97
	253	12.7	2.46979E-001	8.04420E-007	0.00000E+000	2.47002E-001	0.00000E+000	9	...........	1467.97
	254	12.75	2.45979E-001	7.74738E-007	0.00000E+000	2.46002E-001	0.00000E+000	9	...........	1467.97
	255	12.8	2.44986E-001	7.65611E-007	0.00000E+000	2.45002E-001	0.00000E+000	9	...........	1467.97
	256	12.85	2.43998E-001	7.34595E-007	0.00000E+000	2.44003E-001	0.00000E+000	9	...........	1467.81
	257	12.9	2.42991E-001	7.27269E-007	0.00000E+000	2.43003E-001	0.00000E+000	9	...........	1467.70
	258	12.95	2.41980E-001	6.93697E-007	0.00000E+000	2.42004E-001	0.00000E+000	9	...........	1467.70
	259	13	2.40974E-001	6.85348E-007	0.00000E+000	2.41004E-001	0.00000E+000	9	...........	1467.70
	260	13.05	2.39987E-001	6.57600E-007	0.00000E+000	2.40004E-001	0.00000E+000	9	...........	1467.70
	261	13.1	2.38987E-001	6.49941E-007	0.00000E+000	2.39005E-001	0.00000E+000	9	...........	1467.70
	262	13.15	2.37987E-001	6.24661E-007	0.00000E+000	2.38005E-001	0.00000E+000	9	...........	1467.70
	263	13.2	2.36978E-001	6.15156E-007	0.00000E+000	2.37005E-001	0.00000E+000	9	...........	1467.70
	264	13.25	2.35980E-001	5.90822E-007	0.00000E+000	2.36006E-001	0.00000E+000	9	...........	1467.70
	265	13.3	2.34988E-001	5.80261E-007	0.00000E+000	2.35006E-001	0.00000E+000	9	...........	1467.70
	266	13.35	2.33987E-001	5.47444E-007	0.00000E+000	2.33994E-001	0.00000E+000	9	...........	1467.70
	267	13.4	2.32981E-001	5.39562E-007	0.00000E+000	2.32994E-001	0.00000E+000	9	...........	1467.70
	268	13.45	2.31983E-001	5.14827E-007	0.00000E+000	2.31994E-001	0.00000E+000	9	...........	1467.70
	269	13.5	2.30985E-001	5.08435E-007	0.00000E+000	2.30995E-001	0.00000E+000	9	...........	1467.70
	270	13.55	2.29969E-001	4.80109E-007	0.00000E+000	2.29995E-001	0.00000E+000	9	...........	1467.70
	271	13.6	2.28971E-001	4.67192E-007	0.00000E+000	2.28996E-001	0.00000E+000	9	...........	1467.70
	272	13.65	2.27974E-001	4.36087E-007	0.00000E+000	2.27996E-001	0.00000E+000	9	...........	1467.70
	273	13.7	2.26968E-001	4.28138E-007	0.00000E+000	2.26996E-001	0.00000E+000	9	...........	1467.70
	274	13.75	2.25965E-001	3.97189E-007	0.00000E+000	2.25997E-001	0.00000E+000	9	...........	1467.70
	275	13.8	2.24968E-001	3.88551E-007	0.00000E+000	2.24997E-001	0.00000E+000	9	...........	1467.70
	276	13.85	2.23987E-001	3.61593E-007	0.00000E+000	2.23997E-001	0.00000E+000	9	...........	1467.54
	277	13.9	2.22984E-001	3.51666E-007	0.00000E+000	2.22998E-001	0.00000E+000	9	...........	1467.43
	278	13.95	2.21985E-001	3.20950E-007	0.00000E+000	2.21998E-001	0.00000E+000	9	...........	1467.43
	279	14	2.20986E-001	3.13680E-007	0.00000E+000	2.20998E-001	0.00000E+000	9	...........	1467.43
	280	14.05	2.19977E-001	2.83675E-007	0.00000E+000	2.19999E-001	0.00000E+000	9	...........	1467.43
	281	14.1	2.18979E-001	2.71780E-007	0.00000E+000	2.18999E-001	0.00000E+000	9	...........	1467.43
	282	14.15	2.17992E-001	2.45645E-007	0.00000E+000	2.17999E-001	0.00000E+000	9	...........	1467.43
	283	14.2	2.16964E-001	2.36396E-007	0.00000E+000	2.17000E-001	0.00000E+000	9	...........	1467.43
	284	14.25	2.15969E-001	2.16997E-007	0.00000E+000	2.16000E-001	0.00000E+000	9	...........	1467.43
	285	14.3	2.14965E-001	2.07003E-007	0.00000E+000	2.15000E-001	0.00000E+000	9	...........	1467.43
	286	14.35	2.13963E-001	1.74475E-007	0.00000E+000	2.14001E-001	0.00000E+000	9	...........	1467.43
	287	14.4	2.12976E-001	1.59845E-007	0.00000E+000	2.13001E-001	0.00000E+000	9	...........	1467.43
	288	14.45	2.11992E-001	1.34065E-007	0.00000E+000	2.12001E-001	0.00000E+000	9	...........	1467.43
	289	14.5	2.10981E-001	1.23716E-007	0.00000E+000	2.11002E-001	0.00000E+000	9	...........	1467.43
	290	14.55	2.09983E-001	9.28554E-008	0.00000E+000	2.10002E-001	0.00000E+000	9	...........	1467.43
	291	14.6	2.08989E-001	8.29058E-008	0.00000E+000	2.09003E-001	0.00000E+000	9	...........	1467.43
	292	14.65	2.07990E-001	5.91158E-008	0.00000E+000	2.08003E-001	0.00000E+000	9	...........	1467.43
	293	14.7	2.06990E-001	4.51531E-008	0.00000E+000	2.07003E-001	0.00000E+000	9	...........	1467.43
	294	14.75	2.05996E-001	1.36592E-008	0.00000E+000	2.06004E-001	0.00000E+000	9	...........	1467.43
	295	14.8	2.04999E-001	-1.88208E-009	0.00000E+000	2.05004E-001	0.00000E+000	9	...........	1467.43
	296	14.85	2.03985E-001	-3.15751E-008	0.00000E+000	2.04004E-001	0.00000E+000	9	...........	1467.49
	297	14.9	2.02982E-001	-4.01572E-008	0.00000E+000	2.03005E-001	0.00000E+000	9	...........	1467.52
	298	14.95	2.01984E-001	-6.40362E-008	0.00000E+000	2.02005E-001	0.00000E+000	9	...........	1467.52
	299	15	2.00987E-001	-7.20291E-008	0.00000E+000	2.01005E-001	0.00000E+000	9	...........	1467.52
	300	15.05	1.99997E-001	-1.04179E-007	0.00000E+000	2.00006E-001	0.00000E+000	9	...........	1467.52
	301	15.1	1.99004E-001	-1.14229E-007	0.00000E+000	1.99006E-001	0.00000E+000	9	...........	1467.52
	302	15.15	1.97981E-001	-1.42176E-007	0.00000E+000	1.97994E-001	0.00000E+000	9	...........	1467.52
	303	15.2	1.96986E-001	-1.51314E-007	0.00000E+000	1.96994E-001	0.00000E+000	9	...........	1467.52
	304	15.25	1.95989E-001	-1.79273E-007	0.00000E+000	1.95995E-001	0.00000E+000	9	...........	1467.52
	305	15.3	1.94982E-001	-1.94258E-007	0.00000E+000	1.94995E-001	0.00000E+000	9	...........	1467.52
	306	15.35	1.93996E-001	-2.24441E-007	0.00000E+000	1.93995E-001	0.00000E+000	9	...........	1467.52
	307	15.4	1.93006E-001	-2.36569E-007	0.00000E+000	1.92996E-001	0.00000E+000	9	...........	1467.52
	308	15.45	1.92013E-001	-2.64405E-007	0.00000E+000	1.91996E-001	0.00000E+000	9	...........	1467.52
	309	15.5	1.90978E-001	-2.75678E-007	0.00000E+000	1.90996E-001	0.00000E+000	9	...........	1467.52
	310	15.55	1.89977E-001	-3.05404E-007	0.00000E+000	1.89997E-001	0.00000E+000	9	...........	1467.52
	311	15.6	1.88989E-001	-3.17433E-007	0.00000E+000	1.88997E-001	0.00000E+000	9	...........	1467.52
	312	15.65	1.88000E-001	-3.41512E-007	0.00000E+000	1.87997E-001	0.00000E+000	9	...........	1467.52
	313	15.7	1.86990E-001	-3.53951E-007	0.00000E+000	1.86998E-001	0.00000E+000	9	...........	1467.52
	314	15.75	1.85992E-001	-3.82677E-007	0.00000E+000	1.85998E-001	0.00000E+000	9	...........	1467.52
	315	15.8	1.84988E-001	-3.98508E-007	0.00000E+000	1.84998E-001	0.00000E+000	9	...........	1467.52
	316	15.85	1.83990E-001	-4.21886E-007	0.00000E+000	1.83999E-001	0.00000E+000	9	...........	1467.80
	317	15.9	1.82990E-001	-4.33059E-007	0.00000E+000	1.82999E-001	0.00000E+000	9	...........	1467.97
	318	15.95	1.81995E-001	-4.60751E-007	0.00000E+000	1.81999E-001	0.00000E+000	9	...........	1467.97
	319	16	1.80999E-001	-4.75069E-007	0.00000E+000	1.81000E-001	0.00000E+000	9	...........	1467.97
	320	16.05	1.79989E-001	-5.07652E-007	0.00000E+000	1.80000E-001	0.00000E+000	9	...........	1467.97
	321	16.1	1.78970E-001	-5.18102E-007	0.00000E+000	1.79000E-001	0.00000E+000	9	...........	1467.97
	322	16.15	1.77974E-001	-5.50185E-007	0.00000E+000	1.78001E-001	0.00000E+000	9	...........	1467.97
	323	16.2	1.76971E-001	-5.63236E-007	0.00000E+000	1.77001E-001	0.00000E+000	9	...........	1467.97
	324	16.25	1.75991E-001	-5.90095E-007	0.00000E+000	1.76002E-001	0.00000E+000	9	...........	1467.97
	325	16.3	1.74982E-001	-6.00533E-007	0.00000E+000	1.75002E-001	0.00000E+000	9	...........	1467.97
	326	16.35	1.73988E-001	-6.28370E-007	0.00000E+000	1.74002E-001	0.00000E+000	9	...........	1467.97
	327	16.4	1.72994E-001	-6.38408E-007	0.00000E+000	1.73003E-001	0.00000E+000	9	...........	1467.97
	328	16.45	1.71989E-001	-6.67823E-007	0.00000E+000	1.72003E-001	0.00000E+000	9	...........	1467.97
	329	16.5	1.70984E-001	-6.75939E-007	0.00000E+000	1.71003E-001	0.00000E+000	9	...........	1467.97
	330	16.55	1.69997E-001	-7.05309E-007	0.00000E+000	1.70004E-001	0.00000E+000	9	...........	1467.97
	331	16.6	1.68995E-001	-7.16960E-007	0.00000E+000	1.69004E-001	0.00000E+000	9	...........	1467.97
	332	16.65	1.67997E-001	-7.36870E-007	0.00000E+000	1.68004E-001	0.00000E+000	9	...........	1467.97
	333	16.7	1.66998E-001	-7.52889E-007	0.00000E+000	1.67005E-001	0.00000E+000	9	...........	1467.97
	334	16.75	1.65965E-001	-7.83105E-007	0.00000E+000	1.66005E-001	0.00000E+000	9	...........	1467.97
	335	16.8	1.64974E-001	-7.92320E-007	0.00000E+000	1.65005E-001	0.00000E+000	9	...........	1467.97
	336	16.85	1.63986E-001	-8.15188E-007	0.00000E+000	1.64006E-001	0.00000E+000	9	...........	1467.75
	337	16.9	1.62982E-001	-8.29828E-007	0.00000E+000	1.63006E-001	0.00000E+000	9	...........	1467.61
	338	16.95	1.61974E-001	-8.57120E-007	0.00000E+000	1.61994E-001	0.00000E+000	9	...........	1467.61
	339	17	1.60975E-001	-8.66114E-007	0.00000E+000	1.60994E-001	0.00000E+000	9	...........	1467.61
	340	17.05	1.59975E-001	-8.98197E-007	0.00000E+000	1.59995E-001	0.00000E+000	9	...........	1467.61
	341	17.1	1.58967E-001	-9.03722E-007	0.00000E+000	1.58995E-001	0.00000E+000	9	...........	1467.61
	342	17.15	1.57985E-001	-9.26511E-007	0.00000E+000	1.57995E-001	0.00000E+000	9	...........	1467.61
	343	17.2	1.56996E-001	-9.37395E-007	0.00000E+000	1.56996E-001	0.00000E+000	9	...........	1467.61
	344	17.25	1.55991E-001	-9.57816E-007	0.00000E+000	1.55996E-001	0.00000E+000	9	...........	1467.61
	345	17.3	1.54992E-001	-9.69900E-007	0.00000E+000	1.54996E-001	0.00000E+000	9	...........	1467.61
	346	17.35	1.53982E-001	-9.98904E-007	0.00000E+000	1.53997E-001	0.00000E+000	9	...........	1467.61
	347	17.4	1.52969E-001	-1.00798E-006	0.00000E+000	1.52997E-001	0.00000E+000	9	...........	1467.61
	348	17.45	1.51971E-001	-1.03230E-006	0.00000E+000	1.51997E-001	0.00000E+000	9	...........	1467.61
	349	17.5	1.50971E-001	-1.04484E-006	0.00000E+000	1.50998E-001	0.00000E+000	9	...........	1467.61
	350	17.55	1.49973E-001	-1.06686E-006	0.00000E+000	1.49998E-001	0.00000E+000	9	...........	1467.61
	351	17.6	1.48979E-001	-1.08155E-006	0.00000E+000	1.48998E-001	0.00000E+000	9	...........	1467.61
	352	17.65	1.47989E-001	-1.10728E-006	0.00000E+000	1.47999E-001	0.00000E+000	9	...........	1467.61
	353	17.7	1.46990E-001	-1.11702E-006	0.00000E+000	1.46999E-001	0.00000E+000	9	...........	1467.61
	354	17.75	1.45986E-001	-1.14667E-006	0.00000E+000	1.46000E-001	0.00000E+000	9	...........	1467.61
	355	17.8	1.44994E-001	-1.15667E-006	0.00000E+000	1.45000E-001	0.00000E+000	9	...........	1467.61
	356	17.85	1.43998E-001	-1.18035E-006	0.00000E+000	1.44000E-001	0.00000E+000	9	...........	1467.56
	357	17.9	1.43006E-001	-1.19104E-006	0.00000E+000	1.43001E-001	0.00000E+000	9	...........	1467.52
	358	17.95	1.42009E-001	-1.21673E-006	0.00000E+000	1.42001E-001	0.00000E+000	9	...........	1467.52
	359	18	1.41015E-001	-1.22709E-006	0.00000E+000	1.41001E-001	0.00000E+000	9	...........	1467.52
	360	18.05	1.39989E-001	-1.24882E-006	0.00000E+000	1.40002E-001	0.00000E+000	9	...........	1467.52
	361	18.1	1.38990E-001	-1.25431E-006	0.00000E+000	1.39002E-001	0.00000E+000	9	...........	1467.52
	362	18.15	1.37990E-001	-1.27936E-006	0.00000E+000	1.38002E-001	0.00000E+000	9	...........	1467.52
	363	18.2	1.36984E-001	-1.29551E-006	0.00000E+000	1.37003E-001	0.00000E+000	9	...........	1467.52
	364	18.25	1.35988E-001	-1.32346E-006	0.00000E+000	1.36003E-001	0.00000E+000	9	...........	1467.52
	365	18.3	1.34987E-001	-1.33400E-006	0.00000E+000	1.35003E-001	0.00000E+000	9	...........	1467.52
	366	18.35	1.33991E-001	-1.35610E-006	0.00000E+000	1.34004E-001	0.00000E+000	9	...........	1467.52
	367	18.4	1.33004E-001	-1.36658E-006	0.00000E+000	1.33004E-001	0.00000E+000	9	...........	1467.52
	368	18.45	1.32013E-001	-1.38816E-006	0.00000E+000	1.32004E-001	0.00000E+000	9	...........	1467.52
	369	18.5	1.31008E-001	-1.39782E-006	0.00000E+000	1.31005E-001	0.00000E+000	9	...........	1467.52
	370	18.55	1.30001E-001	-1.42431E-006	0.00000E+000	1.30005E-001	0.00000E+000	9	...........	1467.52
	371	18.6	1.28998E-001	-1.43533E-006	0.00000E+000	1.29005E-001	0.00000E+000	9	...........	1467.52
	372	18.65	1.28004E-001	-1.45739E-006	0.00000E+000	1.28006E-001	0.00000E+000	9	...........	1467.52
	373	18.7	1.26986E-001	-1.46854E-006	0.00000E+000	1.27006E-001	0.00000E+000	9	...........	1467.52
	374	18.75	1.25974E-001	-1.49573E-006	0.00000E+000	1.25994E-001	0.00000E+000	9	...........	1467.52
	375	18.8	1.24980E-001	-1.50032E-006	0.00000E+000	1.24994E-001	0.00000E+000	9	...........	1467.52
	376	18.85	1.23974E-001	-1.52400E-006	0.00000E+000	1.23995E-001	0.00000E+000	9	...........	1467.81
	377	18.9	1.22979E-001	-1.53354E-006	0.00000E+000	1.22995E-001	0.00000E+000	9	...........	1467.97
	378	18.95	1.21992E-001	-1.55989E-006	0.00000E+000	1.21995E-001	0.00000E+000	9	...........	1467.97
	379	19	1.20977E-001	-1.57219E-006	0.00000E+000	1.20996E-001	0.00000E+000	9	...........	1467.97
	380	19.05	1.19989E-001	-1.59688E-006	0.00000E+000	1.19996E-001	0.00000E+000	9	...........	1467.97
	381	19.1	1.18985E-001	-1.60710E-006	0.00000E+000	1.18996E-001	0.00000E+000	9	...........	1467.97
	382	19.15	1.17982E-001	-1.63368E-006	0.00000E+000	1.17997E-001	0.00000E+000	9	...........	1467.97
	383	19.2	1.16985E-001	-1.64116E-006	0.00000E+000	1.16997E-001	0.00000E+000	9	...........	1467.97
	384	19.25	1.15995E-001	-1.66619E-006	0.00000E+000	1.15997E-001	0.00000E+000	9	...........	1467.97
	385	19.3	1.14989E-001	-1.67386E-006	0.00000E+000	1.14998E-001	0.00000E+000	9	...........	1467.97
	386	19.35	1.13976E-001	-1.69681E-006	0.00000E+000	1.13998E-001	0.00000E+000	9	...........	1467.97
	387	19.4	1.12972E-001	-1.71110E-006	0.00000E+000	1.12999E-001	0.00000E+000	9	...........	1467.97
[...]
	1001	50.1	2.98989E-001	2.11539E-006	0.00000E+000	2.98996E-001	0.00000E+000	9	...........	1467.70
	1002	50.15	2.97990E-001	2.01591E-006	0.00000E+000	2.97996E-001	0.00000E+000	9	...........	1467.70
	1003	50.2	2.96985E-001	1.93569E-006	0.00000E+000	2.96997E-001	0.00000E+000	9	...........	1467.70
	1004	50.25	2.95998E-001	1.88077E-006	0.00000E+000	2.95997E-001	0.00000E+000	9	...........	1467.70
	1005	50.3	2.95003E-001	1.82120E-006	0.00000E+000	2.94998E-001	0.00000E+000	9	...........	1467.70
	1006	50.35	2.93970E-001	1.77507E-006	0.00000E+000	2.93998E-001	0.00000E+000	9	...........	1467.70
	1007	50.4	2.92973E-001	1.72757E-006	0.00000E+000	2.92998E-001	0.00000E+000	9	...........	1467.70
	1008	50.45	2.91974E-001	1.68772E-006	0.00000E+000	2.91999E-001	0.00000E+000	9	...........	1467.70
	1009	50.5	2.90960E-001	1.64112E-006	0.00000E+000	2.90999E-001	0.00000E+000	9	...........	1467.70
	1010	50.55	2.89970E-001	1.60552E-006	0.00000E+000	2.89999E-001	0.00000E+000	9	...........	1467.70
	1011	50.6	2.88983E-001	1.56598E-006	0.00000E+000	2.89000E-001	0.00000E+000	9	...........	1467.70
	1012	50.65	2.87994E-001	1.53933E-006	0.00000E+000	2.88000E-001	0.00000E+000	9	...........	1467.70
	1013	50.7	2.86974E-001	1.50085E-006	0.00000E+000	2.87000E-001	0.00000E+000	9	...........	1467.70
	1014	50.75	2.85976E-001	1.47562E-006	0.00000E+000	2.86001E-001	0.00000E+000	9	...........	1467.70
	1015	50.8	2.84987E-001	1.44008E-006	0.00000E+000	2.85001E-001	0.00000E+000	9	...........	1467.70
	1016	50.85	2.83993E-001	1.41030E-006	0.00000E+000	2.84001E-001	0.00000E+000	9	...........	1467.55
	1017	50.9	2.82984E-001	1.37492E-006	0.00000E+000	2.83002E-001	0.00000E+000	9	...........	1467.52
	1018	50.95	2.81978E-001	1.35139E-006	0.00000E+000	2.82002E-001	0.00000E+000	9	...........	1467.52
	1019	51	2.80968E-001	1.32608E-006	0.00000E+000	2.81002E-001	0.00000E+000	9	...........	1467.52
	1020	51.05	2.79969E-001	1.30243E-006	0.00000E+000	2.80003E-001	0.00000E+000	9	...........	1467.52
	1021	51.1	2.78970E-001	1.27542E-006	0.00000E+000	2.79003E-001	0.00000E+000	9	...........	1467.52
	1022	51.15	2.77975E-001	1.24886E-006	0.00000E+000	2.78003E-001	0.00000E+000	9	...........	1467.52
	1023	51.2	2.76977E-001	1.21865E-006	0.00000E+000	2.77004E-001	0.00000E+000	9	...........	1467.52
	1024	51.25	2.75982E-001	1.20661E-006	0.00000E+000	2.76004E-001	0.00000E+000	9	...........	1467.52
	1025	51.3	2.74974E-001	1.17738E-006	0.00000E+000	2.75004E-001	0.00000E+000	9	...........	1467.52
	1026	51.35	2.73973E-001	1.15500E-006	0.00000E+000	2.74005E-001	0.00000E+000	9	...........	1467.52
	1027	51.4	2.72976E-001	1.12928E-006	0.00000E+000	2.73005E-001	0.00000E+000	9	...........	1467.52
	1028	51.45	2.71982E-001	1.10770E-006	0.00000E+000	2.72006E-001	0.00000E+000	9	...........	1467.52
	1029	51.5	2.70997E-001	1.08096E-006	0.00000E+000	2.71006E-001	0.00000E+000	9	...........	1467.52
	1030	51.55	2.69984E-001	1.05227E-006	0.00000E+000	2.69994E-001	0.00000E+000	9	...........	1467.52
	1031	51.6	2.68988E-001	1.03139E-006	0.00000E+000	2.68994E-001	0.00000E+000	9	...........	1467.52
	1032	51.65	2.67949E-001	1.01249E-006	0.00000E+000	2.67994E-001	0.00000E+000	9	...........	1467.52
	1033	51.7	2.66954E-001	9.85835E-007	0.00000E+000	2.66995E-001	0.00000E+000	9	...........	1467.52
	1034	51.75	2.65962E-001	9.68248E-007	0.00000E+000	2.65995E-001	0.00000E+000	9	...........	1467.52
	1035	51.8	2.64963E-001	9.41635E-007	0.00000E+000	2.64995E-001	0.00000E+000	9	...........	1467.52
	1036	51.85	2.63976E-001	9.24915E-007	0.00000E+000	2.63996E-001	0.00000E+000	9	...........	1467.52
	1037	51.9	2.62971E-001	9.02370E-007	0.00000E+000	2.62996E-001	0.00000E+000	9	...........	1467.52
	1038	51.95	2.61967E-001	8.82927E-007	0.00000E+000	2.61997E-001	0.00000E+000	9	...........	1467.52
	1039	52	2.60968E-001	8.61683E-007	0.00000E+000	2.60997E-001	0.00000E+000	9	...........	1467.52
	1040	52.05	2.59970E-001	8.41417E-007	0.00000E+000	2.59997E-001	0.00000E+000	9	...........	1467.52
	1041	52.1	2.58977E-001	8.22029E-007	0.00000E+000	2.58998E-001	0.00000E+000	9	...........	1467.52
	1042	52.15	2.57976E-001	8.00107E-007	0.00000E+000	2.57998E-001	0.00000E+000	9	...........	1467.52
	1043	52.2	2.56980E-001	7.78307E-007	0.00000E+000	2.56998E-001	0.00000E+000	9	...........	1467.52
	1044	52.25	2.55978E-001	7.58485E-007	0.00000E+000	2.55999E-001	0.00000E+000	9	...........	1467.52
	1045	52.3	2.54968E-001	7.34606E-007	0.00000E+000	2.54999E-001	0.00000E+000	9	...........	1467.52
	1046	52.35	2.53961E-001	7.15652E-007	0.00000E+000	2.53999E-001	0.00000E+000	9	...........	1467.52
	1047	52.4	2.52963E-001	6.97498E-007	0.00000E+000	2.53000E-001	0.00000E+000	9	...........	1467.52
	1048	52.45	2.51967E-001	6.76899E-007	0.00000E+000	2.52000E-001	0.00000E+000	9	...........	1467.52
	1049	52.5	2.50975E-001	6.57656E-007	0.00000E+000	2.51000E-001	0.00000E+000	9	...........	1467.52
	1050	52.55	2.49980E-001	6.36967E-007	0.00000E+000	2.50001E-001	0.00000E+000	9	...........	1467.52
	1051	52.6	2.48975E-001	6.15890E-007	0.00000E+000	2.49001E-001	0.00000E+000	9	...........	1467.52
	1052	52.65	2.47982E-001	6.00860E-007	0.00000E+000	2.48001E-001	0.00000E+000	9	...........	1467.52
	1053	52.7	2.46979E-001	5.80627E-007	0.00000E+000	2.47002E-001	0.00000E+000	9	...........	1467.52
	1054	52.75	2.45987E-001	5.57938E-007	0.00000E+000	2.46002E-001	0.00000E+000	9	...........	1467.52
	1055	52.8	2.44993E-001	5.43219E-007	0.00000E+000	2.45002E-001	0.00000E+000	9	...........	1467.52
	1056	52.85	2.43994E-001	5.25266E-007	0.00000E+000	2.44003E-001	0.00000E+000	9	...........	1467.91
	1057	52.9	2.42981E-001	5.07779E-007	0.00000E+000	2.43003E-001	0.00000E+000	9	...........	1467.97
	1058	52.95	2.41972E-001	4.93961E-007	0.00000E+000	2.42004E-001	0.00000E+000	9	...........	1467.97
	1059	53	2.40969E-001	4.71383E-007	0.00000E+000	2.41004E-001	0.00000E+000	9	...........	1467.97
	1060	53.05	2.39986E-001	4.50272E-007	0.00000E+000	2.40004E-001	0.00000E+000	9	...........	1467.97
	1061	53.1	2.38974E-001	4.32674E-007	0.00000E+000	2.39005E-001	0.00000E+000	9	...........	1467.97
	1062	53.15	2.37973E-001	4.13097E-007	0.00000E+000	2.38005E-001	0.00000E+000	9	...........	1467.97
	1063	53.2	2.36979E-001	3.91920E-007	0.00000E+000	2.37005E-001	0.00000E+000	9	...........	1467.97
	1064	53.25	2.35978E-001	3.72721E-007	0.00000E+000	2.36006E-001	0.00000E+000	9	...........	1467.97
	1065	53.3	2.34982E-001	3.58291E-007	0.00000E+000	2.35006E-001	0.00000E+000	9	...........	1467.97
	1066	53.35	2.33983E-001	3.34212E-007	0.00000E+000	2.33994E-001	0.00000E+000	9	...........	1467.97
	1067	53.4	2.32990E-001	3.20127E-007	0.00000E+000	2.32994E-001	0.00000E+000	9	...........	1467.97
	1068	53.45	2.31989E-001	3.00039E-007	0.00000E+000	2.31994E-001	0.00000E+000	9	...........	1467.97
	1069	53.5	2.30981E-001	2.83642E-007	0.00000E+000	2.30995E-001	0.00000E+000	9	...........	1467.97
	1070	53.55	2.29970E-001	2.61764E-007	0.00000E+000	2.29995E-001	0.00000E+000	9	...........	1467.97
	1071	53.6	2.28970E-001	2.50670E-007	0.00000E+000	2.28996E-001	0.00000E+000	9	...........	1467.97
	1072	53.65	2.27969E-001	2.21999E-007	0.00000E+000	2.27996E-001	0.00000E+000	9	...........	1467.97
	1073	53.7	2.26962E-001	2.02145E-007	0.00000E+000	2.26996E-001	0.00000E+000	9	...........	1467.97
	1074	53.75	2.25965E-001	1.82968E-007	0.00000E+000	2.25997E-001	0.00000E+000	9	...........	1467.97
	1075	53.8	2.24974E-001	1.67227E-007	0.00000E+000	2.24997E-001	0.00000E+000	9	...........	1467.97
	1076	53.85	2.23986E-001	1.43759E-007	0.00000E+000	2.23997E-001	0.00000E+000	9	...........	1467.66
	1077	53.9	2.22981E-001	1.29341E-007	0.00000E+000	2.22998E-001	0.00000E+000	9	...........	1467.61
	1078	53.95	2.21979E-001	1.07341E-007	0.00000E+000	2.21998E-001	0.00000E+000	9	...........	1467.61
	1079	54	2.20980E-001	9.45785E-008	0.00000E+000	2.20998E-001	0.00000E+000	9	...........	1467.61
	1080	54.05	2.19981E-001	7.21781E-008	0.00000E+000	2.19999E-001	0.00000E+000	9	...........	1467.61
	1081	54.1	2.18983E-001	5.57252E-008	0.00000E+000	2.18999E-001	0.00000E+000	9	...........	1467.61
	1082	54.15	2.17998E-001	3.33693E-008	0.00000E+000	2.17999E-001	0.00000E+000	9	...........	1467.61
	1083	54.2	2.16967E-001	1.67164E-008	0.00000E+000	2.17000E-001	0.00000E+000	9	...........	1467.61
	1084	54.25	2.15969E-001	-3.21610E-009	0.00000E+000	2.16000E-001	0.00000E+000	9	...........	1467.61
	1085	54.3	2.14971E-001	-2.54942E-008	0.00000E+000	2.15000E-001	0.00000E+000	9	...........	1467.61
	1086	54.35	2.13962E-001	-4.74387E-008	0.00000E+000	2.14001E-001	0.00000E+000	9	...........	1467.61
	1087	54.4	2.12967E-001	-6.72711E-008	0.00000E+000	2.13001E-001	0.00000E+000	9	...........	1467.61
	1088	54.45	2.11982E-001	-9.30177E-008	0.00000E+000	2.12001E-001	0.00000E+000	9	...........	1467.61
	1089	54.5	2.10977E-001	-1.06191E-007	0.00000E+000	2.11002E-001	0.00000E+000	9	...........	1467.61
	1090	54.55	2.09981E-001	-1.28380E-007	0.00000E+000	2.10002E-001	0.00000E+000	9	...........	1467.61
	1091	54.6	2.08983E-001	-1.43132E-007	0.00000E+000	2.09003E-001	0.00000E+000	9	...........	1467.61
	1092	54.65	2.07980E-001	-1.70179E-007	0.00000E+000	2.08003E-001	0.00000E+000	9	...........	1467.61
	1093	54.7	2.06970E-001	-1.88389E-007	0.00000E+000	2.07003E-001	0.00000E+000	9	...........	1467.61
	1094	54.75	2.05992E-001	-2.14480E-007	0.00000E+000	2.06004E-001	0.00000E+000	9	...........	1467.61
	1095	54.8	2.04998E-001	-2.29754E-007	0.00000E+000	2.05004E-001	0.00000E+000	9	...........	1467.61
	1096	54.85	2.03980E-001	-2.56935E-007	0.00000E+000	2.04004E-001	0.00000E+000	9	...........	1467.53
	1097	54.9	2.02977E-001	-2.75900E-007	0.00000E+000	2.03005E-001	0.00000E+000	9	...........	1467.52
	1098	54.95	2.01983E-001	-2.99868E-007	0.00000E+000	2.02005E-001	0.00000E+000	9	...........	1467.52
	1099	55	2.00982E-001	-3.15632E-007	0.00000E+000	2.01005E-001	0.00000E+000	9	...........	1467.52
	1100	55.05	1.99993E-001	-3.37465E-007	0.00000E+000	2.00006E-001	0.00000E+000	9	...........	1467.52
	1101	55.1	1.99002E-001	-3.53718E-007	0.00000E+000	1.99006E-001	0.00000E+000	9	...........	1467.52
	1102	55.15	1.97985E-001	-3.85067E-007	0.00000E+000	1.97994E-001	0.00000E+000	9	...........	1467.52
	1103	55.2	1.96988E-001	-4.03299E-007	0.00000E+000	1.96994E-001	0.00000E+000	9	...........	1467.52
	1104	55.25	1.95996E-001	-4.20830E-007	0.00000E+000	1.95995E-001	0.00000E+000	9	...........	1467.52
	1105	55.3	1.94995E-001	-4.40662E-007	0.00000E+000	1.94995E-001	0.00000E+000	9	...........	1467.52
	1106	55.35	1.93997E-001	-4.66442E-007	0.00000E+000	1.93995E-001	0.00000E+000	9	...........	1467.52
	1107	55.4	1.93006E-001	-4.75780E-007	0.00000E+000	1.92996E-001	0.00000E+000	9	...........	1467.52
	1108	55.45	1.92013E-001	-5.01927E-007	0.00000E+000	1.91996E-001	0.00000E+000	9	...........	1467.52
	1109	55.5	1.90980E-001	-5.18903E-007	0.00000E+000	1.90996E-001	0.00000E+000	9	...........	1467.52
	1110	55.55	1.89970E-001	-5.45961E-007	0.00000E+000	1.89997E-001	0.00000E+000	9	...........	1467.52
	1111	55.6	1.88969E-001	-5.61269E-007	0.00000E+000	1.88997E-001	0.00000E+000	9	...........	1467.52
	1112	55.65	1.87981E-001	-5.83936E-007	0.00000E+000	1.87997E-001	0.00000E+000	9	...........	1467.52
	1113	55.7	1.86985E-001	-6.05247E-007	0.00000E+000	1.86998E-001	0.00000E+000	9	...........	1467.52
	1114	55.75	1.85986E-001	-6.30037E-007	0.00000E+000	1.85998E-001	0.00000E+000	9	...........	1467.52
	1115	55.8	1.84980E-001	-6.46479E-007	0.00000E+000	1.84998E-001	0.00000E+000	9	...........	1467.52
	1116	55.85	1.83982E-001	-6.67556E-007	0.00000E+000	1.83999E-001	0.00000E+000	9	...........	1467.52
	1117	55.9	1.82984E-001	-6.85488E-007	0.00000E+000	1.82999E-001	0.00000E+000	9	...........	1467.52
	1118	55.95	1.81995E-001	-7.08766E-007	0.00000E+000	1.81999E-001	0.00000E+000	9	...........	1467.52
	1119	56	1.80992E-001	-7.21840E-007	0.00000E+000	1.81000E-001	0.00000E+000	9	...........	1467.52
	1120	56.05	1.79976E-001	-7.46675E-007	0.00000E+000	1.80000E-001	0.00000E+000	9	...........	1467.52
	1121	56.1	1.78966E-001	-7.61093E-007	0.00000E+000	1.79000E-001	0.00000E+000	9	...........	1467.52
	1122	56.15	1.77971E-001	-7.82493E-007	0.00000E+000	1.78001E-001	0.00000E+000	9	...........	1467.52
	1123	56.2	1.76978E-001	-7.99669E-007	0.00000E+000	1.77001E-001	0.00000E+000	9	...........	1467.52
	1124	56.25	1.75988E-001	-8.22658E-007	0.00000E+000	1.76002E-001	0.00000E+000	9	...........	1467.52
	1125	56.3	1.74983E-001	-8.39144E-007	0.00000E+000	1.75002E-001	0.00000E+000	9	...........	1467.52
	1126	56.35	1.73981E-001	-8.62368E-007	0.00000E+000	1.74002E-001	0.00000E+000	9	...........	1467.52
	1127	56.4	1.72985E-001	-8.77542E-007	0.00000E+000	1.73003E-001	0.00000E+000	9	...........	1467.52
	1128	56.45	1.71982E-001	-9.02466E-007	0.00000E+000	1.72003E-001	0.00000E+000	9	...........	1467.52
	1129	56.5	1.70978E-001	-9.18996E-007	0.00000E+000	1.71003E-001	0.00000E+000	9	...........	1467.52
	1130	56.55	1.69995E-001	-9.44332E-007	0.00000E+000	1.70004E-001	0.00000E+000	9	...........	1467.52
	1131	56.6	1.68994E-001	-9.61818E-007	0.00000E+000	1.69004E-001	0.00000E+000	9	...........	1467.52
	1132	56.65	1.68000E-001	-9.87209E-007	0.00000E+000	1.68004E-001	0.00000E+000	9	...........	1467.52
	1133	56.7	1.67001E-001	-1.00243E-006	0.00000E+000	1.67005E-001	0.00000E+000	9	...........	1467.52
	1134	56.75	1.65974E-001	-1.02490E-006	0.00000E+000	1.66005E-001	0.00000E+000	9	...........	1467.52
	1135	56.8	1.64969E-001	-1.04207E-006	0.00000E+000	1.65005E-001	0.00000E+000	9	...........	1467.52
	1136	56.85	1.63981E-001	-1.06602E-006	0.00000E+000	1.64006E-001	0.00000E+000	9	...........	1467.84
	1137	56.9	1.62980E-001	-1.08286E-006	0.00000E+000	1.63006E-001	0.00000E+000	9	...........	1467.88
	1138	56.95	1.61975E-001	-1.11019E-006	0.00000E+000	1.61994E-001	0.00000E+000	9	...........	1467.88
	1139	57	1.60977E-001	-1.12601E-006	0.00000E+000	1.60994E-001	0.00000E+000	9	...........	1467.88
	1140	57.05	1.59981E-001	-1.14686E-006	0.00000E+000	1.59995E-001	0.00000E+000	9	...........	1467.88
	1141	57.1	1.58977E-001	-1.15812E-006	0.00000E+000	1.58995E-001	0.00000E+000	9	...........	1467.88
	1142	57.15	1.57995E-001	-1.18489E-006	0.00000E+000	1.57995E-001	0.00000E+000	9	...........	1467.88
	1143	57.2	1.56998E-001	-1.20021E-006	0.00000E+000	1.56996E-001	0.00000E+000	9	...........	1467.88
	1144	57.25	1.55990E-001	-1.21849E-006	0.00000E+000	1.55996E-001	0.00000E+000	9	...........	1467.88
	1145	57.3	1.54985E-001	-1.23494E-006	0.00000E+000	1.54996E-001	0.00000E+000	9	...........	1467.88
	1146	57.35	1.53980E-001	-1.25535E-006	0.00000E+000	1.53997E-001	0.00000E+000	9	...........	1467.88
	1147	57.4	1.52978E-001	-1.27197E-006	0.00000E+000	1.52997E-001	0.00000E+000	9	...........	1467.88
	1148	57.45	1.51970E-001	-1.29727E-006	0.00000E+000	1.51997E-001	0.00000E+000	9	...........	1467.88
	1149	57.5	1.50974E-001	-1.31168E-006	0.00000E+000	1.50998E-001	0.00000E+000	9	...........	1467.88
	1150	57.55	1.49979E-001	-1.33442E-006	0.00000E+000	1.49998E-001	0.00000E+000	9	...........	1467.88
	1151	57.6	1.48972E-001	-1.34657E-006	0.00000E+000	1.48998E-001	0.00000E+000	9	...........	1467.88
	1152	57.65	1.47976E-001	-1.36976E-006	0.00000E+000	1.47999E-001	0.00000E+000	9	...........	1467.88
	1153	57.7	1.46979E-001	-1.38436E-006	0.00000E+000	1.46999E-001	0.00000E+000	9	...........	1467.88
	1154	57.75	1.45975E-001	-1.40917E-006	0.00000E+000	1.46000E-001	0.00000E+000	9	...........	1467.88
	1155	57.8	1.44982E-001	-1.41791E-006	0.00000E+000	1.45000E-001	0.00000E+000	9	...........	1467.88
	1156	57.85	1.43987E-001	-1.43663E-006	0.00000E+000	1.44000E-001	0.00000E+000	9	...........	1467.56
	1157	57.9	1.42997E-001	-1.45688E-006	0.00000E+000	1.43001E-001	0.00000E+000	9	...........	1467.52
	1158	57.95	1.42006E-001	-1.47497E-006	0.00000E+000	1.42001E-001	0.00000E+000	9	...........	1467.52
	1159	58	1.41005E-001	-1.49156E-006	0.00000E+000	1.41001E-001	0.00000E+000	9	...........	1467.52
	1160	58.05	1.39980E-001	-1.51559E-006	0.00000E+000	1.40002E-001	0.00000E+000	9	...........	1467.52
	1161	58.1	1.38990E-001	-1.52932E-006	0.00000E+000	1.39002E-001	0.00000E+000	9	...........	1467.52
	1162	58.15	1.37996E-001	-1.54735E-006	0.00000E+000	1.38002E-001	0.00000E+000	9	...........	1467.52
	1163	58.2	1.36982E-001	-1.56774E-006	0.00000E+000	1.37003E-001	0.00000E+000	9	...........	1467.52
	1164	58.25	1.35995E-001	-1.58625E-006	0.00000E+000	1.36003E-001	0.00000E+000	9	...........	1467.52
	1165	58.3	1.34993E-001	-1.60032E-006	0.00000E+000	1.35003E-001	0.00000E+000	9	...........	1467.52
	1166	58.35	1.33990E-001	-1.62226E-006	0.00000E+000	1.34004E-001	0.00000E+000	9	...........	1467.52
	1167	58.4	1.32993E-001	-1.63642E-006	0.00000E+000	1.33004E-001	0.00000E+000	9	...........	1467.52
	1168	58.45	1.31991E-001	-1.65762E-006	0.00000E+000	1.32004E-001	0.00000E+000	9	...........	1467.52
	1169	58.5	1.30996E-001	-1.66774E-006	0.00000E+000	1.31005E-001	0.00000E+000	9	...........	1467.52
	1170	58.55	1.29997E-001	-1.69198E-006	0.00000E+000	1.30005E-001	0.00000E+000	9	...........	1467.52
	1171	58.6	1.28992E-001	-1.70444E-006	0.00000E+000	1.29005E-001	0.00000E+000	9	...........	1467.52
	1172	58.65	1.27998E-001	-1.72559E-006	0.00000E+000	1.28006E-001	0.00000E+000	9	...........	1467.52
	1173	58.7	1.26985E-001	-1.74123E-006	0.00000E+000	1.27006E-001	0.00000E+000	9	...........	1467.52
	1174	58.75	1.25965E-001	-1.77112E-006	0.00000E+000	1.25994E-001	0.00000E+000	9	...........	1467.52
	1175	58.8	1.24975E-001	-1.78169E-006	0.00000E+000	1.24994E-001	0.00000E+000	9	...........	1467.52
	1176	58.85	1.23973E-001	-1.80025E-006	0.00000E+000	1.23995E-001	0.00000E+000	9	...........	1467.52
	1177	58.9	1.22977E-001	-1.81418E-006	0.00000E+000	1.22995E-001	0.00000E+000	9	...........	1467.52
	1178	58.95	1.21985E-001	-1.82471E-006	0.00000E+000	1.21995E-001	0.00000E+000	9	...........	1467.52
	1179	59	1.20979E-001	-1.81935E-006	0.00000E+000	1.20996E-001	0.00000E+000	9	...........	1467.52
	1180	59.05	1.19981E-001	-1.84784E-006	0.00000E+000	1.19996E-001	0.00000E+000	9	...........	1467.52
	1181	59.1	1.18982E-001	-1.86314E-006	0.00000E+000	1.18996E-001	0.00000E+000	9	...........	1467.52
	1182	59.15	1.17978E-001	-1.88990E-006	0.00000E+000	1.17997E-001	0.00000E+000	9	...........	1467.52
	1183	59.2	1.16985E-001	-1.90579E-006	0.00000E+000	1.16997E-001	0.00000E+000	9	...........	1467.52
	1184	59.25	1.15997E-001	-1.93236E-006	0.00000E+000	1.15997E-001	0.00000E+000	9	...........	1467.52
	1185	59.3	1.14983E-001	-1.94268E-006	0.00000E+000	1.14998E-001	0.00000E+000	9	...........	1467.52
	1186	59.35	1.13970E-001	-1.96641E-006	0.00000E+000	1.13998E-001	0.00000E+000	9	...........	1467.52
	1187	59.4	1.12976E-001	-1.98264E-006	0.00000E+000	1.12999E-001	0.00000E+000	9	...........	1467.52
	1188	59.45	1.11977E-001	-2.00981E-006	0.00000E+000	1.11999E-001	0.00000E+000	9	...........	1467.52
	1189	59.5	1.10987E-001	-2.02402E-006	0.00000E+000	1.10999E-001	0.00000E+000	9	...........	1467.52
	1190	59.55	1.09987E-001	-2.04617E-006	0.00000E+000	1.10000E-001	0.00000E+000	9	...........	1467.52
	1191	59.6	1.08992E-001	-2.06213E-006	0.00000E+000	1.09000E-001	0.00000E+000	9	...........	1467.52
	1192	59.65	1.07980E-001	-2.08126E-006	0.00000E+000	1.08000E-001	0.00000E+000	9	...........	1467.52
	1193	59.7	1.06990E-001	-2.10036E-006	0.00000E+000	1.07001E-001	0.00000E+000	9	...........	1467.52
	1194	59.75	1.05994E-001	-2.12038E-006	0.00000E+000	1.06001E-001	0.00000E+000	9	...........	1467.52
	1195	59.8	1.04995E-001	-2.13015E-006	0.00000E+000	1.05001E-001	0.00000E+000	9	...........	1467.52
	1196	59.85	1.04008E-001	-2.15693E-006	0.00000E+000	1.04002E-001	0.00000E+000	9	...........	1467.52
	1197	59.9	1.03009E-001	-2.17208E-006	0.00000E+000	1.03002E-001	0.00000E+000	9	...........	1467.52
	1198	59.95	1.01991E-001	-2.19748E-006	0.00000E+000	1.02002E-001	0.00000E+000	9	...........	1467.52
	1199	60	1.00990E-001	-2.21187E-006	0.00000E+000	1.01003E-001	0.00000E+000	9	...........	1467.52
	1200	60.05	9.99877E-002	-2.23309E-006	0.00000E+000	1.00003E-001	0.00000E+000	9	...........	1467.52
CURVE4	TABLE
	Pt	T	Vf	Im	Vu	Sig	Ach	IERange	Over	Temp
	#	s	V vs. Ref.	A	V	V	V	#	bits	deg C
	1201	60.1	9.99940E-002	-1.86652E-006	0.00000E+000	1.00003E-001	0.00000E+000	9	...........	1467.52