File: input/ECSA_test/CV_ECSA_#2_#6.DTA
EXPLAIN
TAG	CV
TITLE	LABEL	ECSA	Test Identifier
DATE	LABEL	2/13/2024	Date
TIME	LABEL	12:04:49	Time
NOTES	NOTES	1	Notes...

PSTAT	PSTAT	IFC1010-36068	Potentiostat
VINIT	POTEN	1.00000E-001	F	Initial E (V)
VLIMIT1	POTEN	3.00000E-001	F	Scan Limit 1 (V)
VLIMIT2	POTEN	1.00000E-001	F	Scan Limit 2 (V)
VFINAL	POTEN	1.00000E-001	F	Final E (V)
SCANRATE	QUANT	5.99999E+001	A Real Number
STEPSIZE	QUANT	1.00000E+000	Step Size (mV)
CYCLES	IQUANT	3	Cycles (#)
IMODE	SELECTOR	1	I/E Range Mode
IRANGE	QUANT	3.00000E-001	Max Current (mA)
AREA	QUANT	1.00000E+000	Sample Area (cm^2)
EQDELAY	QUANT	0.00000E+000	Equil. Time (s)
IRCOMP	SELECTOR	0	IRComp
PFCOR	QUANT	5.00000E+001	PF Corr. (ohm)
SAMPLINGMODE	SELECTOR	2	Sampling Mode
EOC	QUANT	0.3246219	Open Circuit (V)
ELECTRODETYPE	SELECTOR	0	Electrode Type
STRIPPING	TOGGLE	F	Used for Stripping
SEQUENCER	TOGGLE	TRUE	Run as Sequence
PSTATMODEL	IQUANT	64	Pstat Model
PSTATSECTION	LABEL	IFC1010-36068	Pstat Section
PSTATSERIALNO	LABEL	36068	Pstat Serial Number
CTRLMODE	IQUANT	1	Control Mode
ELECTROMETER	IQUANT	0	RE=0 or CS=1
IESTAB	IQUANT	2	I/E Stability
CASPEED	IQUANT	4	Control Amp Speed
CONVENTION	IQUANT	1	Current Convention
ICHRANGE	IQUANT	2	Ich Range
ICHRANGEMODE	TOGGLE	F	Ich Auto Range
ICHOFFSETENABLE	TOGGLE	F	Ich Offset Enable
ICHOFFSET	QUANT	0	Ich Offset (V)
ICHFILTER	IQUANT	3	Ich Filter
VCHRANGE	IQUANT	2	Vch Range
VCHRANGEMODE	TOGGLE	F	Vch Auto Range
VCHOFFSETENABLE	TOGGLE	F	Vch Offset Enable
VCHOFFSET	QUANT	0	Vch Offset (V)
VCHFILTER	IQUANT	3	Vch Filter
IERANGELOWERLIMIT	IQUANT	4	I/E Range Lower Limit
IERANGEMODE	TOGGLE	F	I/E AutoRange
IERANGE	IQUANT	9	I/E Range
ACHSELECT	IQUANT	0	Ach Select
ACHRANGE	IQUANT	2	Ach Range
ACHOFFSETENABLE	TOGGLE	F	Ach Offset Enable
ACHOFFSET	QUANT	0	Ach Offset (V)
ACHFILTER	IQUANT	1	Ach Filter
SENSECABLEID	IQUANT	13	Sense Cable ID
PWRCABLEID	IQUANT	13	Power Cable ID
DCCALDATE	LABEL	8/11/2023	DC Calibration Date
ACCALDATE	LABEL	6/2/2023	AC Calibration Date
FRAMEWORKVERSION	LABEL	7.10.3	Framework Version
INSTRUMENTVERSION	LABEL	4.91	Instrument Version
COMMVERSION	LABEL	3.10	Communications Version
CPUPLDVERSION	LABEL	2.22	CPU PLD Version
CTRLPLDVERSION	LABEL	0.00	CTRL PLD Version
PSTATPLDVERSION	LABEL	0.00	PSTAT PLD Version
CURVE1	TABLE
	Pt	T	Vf	Im	Vu	Sig	Ach	IERange	Over	Temp
	#	s	V vs. Ref.	A	V	V	V	#	bits	deg C
	0	0.016667	9.99973E-002	-2.78554E-006	0.00000E+000	1.00003E-001	0.00000E+000	9	...........	1467.61
	1	0.033333	1.00979E-001	-1.78018E-006	0.00000E+000	1.01003E-001	0.00000E+000	9	...........	1467.61
	2	0.05	1.01971E-001	-1.63605E-006	0.00000E+000	1.02002E-001	0.00000E+000	9	...........	1467.61
	3	0.066667	1.02988E-001	-1.52337E-006	0.00000E+000	1.03002E-001	0.00000E+000	9	...........	1467.61
	4	0.083333	1.03988E-001	-1.44186E-006	0.00000E+000	1.04002E-001	0.00000E+000	9	...........	1467.61
	5	0.1	1.04972E-001	-1.36638E-006	0.00000E+000	1.05001E-001	0.00000E+000	9	...........	1467.61
	6	0.116667	1.05971E-001	-1.29271E-006	0.00000E+000	1.06001E-001	0.00000E+000	9	...........	1467.61
	7	0.133333	1.06970E-001	-1.21894E-006	0.00000E+000	1.07001E-001	0.00000E+000	9	...........	1467.61
	8	0.15	1.07966E-001	-1.14534E-006	0.00000E+000	1.08000E-001	0.00000E+000	9	...........	1467.61
	9	0.166667	1.08971E-001	-1.08119E-006	0.00000E+000	1.09000E-001	0.00000E+000	9	...........	1467.61
	10	0.183333	1.09971E-001	-1.02155E-006	0.00000E+000	1.10000E-001	0.00000E+000	9	...........	1467.61
	11	0.2	1.10963E-001	-9.73124E-007	0.00000E+000	1.10999E-001	0.00000E+000	9	...........	1467.61
	12	0.216667	1.11960E-001	-9.12245E-007	0.00000E+000	1.11999E-001	0.00000E+000	9	...........	1467.57
	13	0.233333	1.12956E-001	-8.60550E-007	0.00000E+000	1.12999E-001	0.00000E+000	9	...........	1467.52
	14	0.25	1.13952E-001	-8.01774E-007	0.00000E+000	1.13998E-001	0.00000E+000	9	...........	1467.52
	15	0.266667	1.14965E-001	-7.46606E-007	0.00000E+000	1.14998E-001	0.00000E+000	9	...........	1467.52
	16	0.283333	1.15980E-001	-7.04261E-007	0.00000E+000	1.15997E-001	0.00000E+000	9	...........	1467.52
	17	0.3	1.16967E-001	-6.64187E-007	0.00000E+000	1.16997E-001	0.00000E+000	9	...........	1467.52
	18	0.316667	1.17965E-001	-6.17802E-007	0.00000E+000	1.17997E-001	0.00000E+000	9	...........	1467.52
	19	0.333333	1.18969E-001	-5.73286E-007	0.00000E+000	1.18996E-001	0.00000E+000	9	...........	1467.52
	20	0.35	1.19974E-001	-5.19053E-007	0.00000E+000	1.19996E-001	0.00000E+000	9	...........	1467.52
	21	0.366667	1.20970E-001	-4.68058E-007	0.00000E+000	1.20996E-001	0.00000E+000	9	...........	1467.52
	22	0.383333	1.21972E-001	-4.31858E-007	0.00000E+000	1.21995E-001	0.00000E+000	9	...........	1467.52
	23	0.4	1.22967E-001	-3.96994E-007	0.00000E+000	1.22995E-001	0.00000E+000	9	...........	1467.52
	24	0.416667	1.23959E-001	-3.62664E-007	0.00000E+000	1.23995E-001	0.00000E+000	9	...........	1467.52
	25	0.433333	1.24963E-001	-3.16545E-007	0.00000E+000	1.24994E-001	0.00000E+000	9	...........	1467.52
	26	0.45	1.25957E-001	-2.67588E-007	0.00000E+000	1.25994E-001	0.00000E+000	9	...........	1467.52
	27	0.466667	1.26969E-001	-2.15192E-007	0.00000E+000	1.27006E-001	0.00000E+000	9	...........	1467.52
	28	0.483333	1.27983E-001	-1.95722E-007	0.00000E+000	1.28006E-001	0.00000E+000	9	...........	1467.52
	29	0.5	1.28985E-001	-1.61092E-007	0.00000E+000	1.29005E-001	0.00000E+000	9	...........	1467.52
	30	0.516667	1.29977E-001	-1.27430E-007	0.00000E+000	1.30005E-001	0.00000E+000	9	...........	1467.52
	31	0.533333	1.30987E-001	-8.56526E-008	0.00000E+000	1.31005E-001	0.00000E+000	9	...........	1467.52
	32	0.55	1.31985E-001	-4.19385E-008	0.00000E+000	1.32004E-001	0.00000E+000	9	...........	1467.52
	33	0.566667	1.32983E-001	2.61036E-009	0.00000E+000	1.33004E-001	0.00000E+000	9	...........	1467.52
	34	0.583333	1.33981E-001	2.99608E-008	0.00000E+000	1.34004E-001	0.00000E+000	9	...........	1467.52
	35	0.6	1.34983E-001	5.42724E-008	0.00000E+000	1.35003E-001	0.00000E+000	9	...........	1467.52
	36	0.616667	1.35980E-001	8.85356E-008	0.00000E+000	1.36003E-001	0.00000E+000	9	...........	1467.52
	37	0.633333	1.36977E-001	1.25871E-007	0.00000E+000	1.37003E-001	0.00000E+000	9	...........	1467.52
	38	0.65	1.37979E-001	1.71622E-007	0.00000E+000	1.38002E-001	0.00000E+000	9	...........	1467.52
	39	0.666667	1.38976E-001	2.03782E-007	0.00000E+000	1.39002E-001	0.00000E+000	9	...........	1467.52
	40	0.683333	1.39970E-001	2.30231E-007	0.00000E+000	1.40002E-001	0.00000E+000	9	...........	1467.52
	41	0.7	1.40997E-001	2.51904E-007	0.00000E+000	1.41001E-001	0.00000E+000	9	...........	1467.52
	42	0.716667	1.41991E-001	2.80991E-007	0.00000E+000	1.42001E-001	0.00000E+000	9	...........	1467.52
	43	0.733333	1.42991E-001	3.21065E-007	0.00000E+000	1.43001E-001	0.00000E+000	9	...........	1467.52
	44	0.75	1.43983E-001	3.56063E-007	0.00000E+000	1.44000E-001	0.00000E+000	9	...........	1467.52
	45	0.766667	1.44984E-001	3.88289E-007	0.00000E+000	1.45000E-001	0.00000E+000	9	...........	1467.52
	46	0.783333	1.45976E-001	4.15706E-007	0.00000E+000	1.46000E-001	0.00000E+000	9	...........	1467.52
	47	0.8	1.46982E-001	4.38348E-007	0.00000E+000	1.46999E-001	0.00000E+000	9	...........	1467.52
	48	0.816667	1.47981E-001	4.62693E-007	0.00000E+000	1.47999E-001	0.00000E+000	9	...........	1467.52
	49	0.833333	1.48971E-001	4.92348E-007	0.00000E+000	1.48998E-001	0.00000E+000	9	...........	1467.52
	50	0.85	1.49962E-001	5.30852E-007	0.00000E+000	1.49998E-001	0.00000E+000	9	...........	1467.52
	51	0.866667	1.50965E-001	5.70559E-007	0.00000E+000	1.50998E-001	0.00000E+000	9	...........	1467.52
	52	0.883333	1.51960E-001	5.88759E-007	0.00000E+000	1.51997E-001	0.00000E+000	9	...........	1467.52
	53	0.9	1.52959E-001	6.08596E-007	0.00000E+000	1.52997E-001	0.00000E+000	9	...........	1467.52
	54	0.916667	1.53969E-001	6.35078E-007	0.00000E+000	1.53997E-001	0.00000E+000	9	...........	1467.52
	55	0.933333	1.54979E-001	6.70877E-007	0.00000E+000	1.54996E-001	0.00000E+000	9	...........	1467.52
	56	0.95	1.55980E-001	7.01534E-007	0.00000E+000	1.55996E-001	0.00000E+000	9	...........	1467.52
	57	0.96667	1.56985E-001	7.30955E-007	0.00000E+000	1.56996E-001	0.00000E+000	9	...........	1467.52
	58	0.98333	1.57980E-001	7.54665E-007	0.00000E+000	1.57995E-001	0.00000E+000	9	...........	1467.52
	59	1	1.58965E-001	7.76506E-007	0.00000E+000	1.58995E-001	0.00000E+000	9	...........	1467.52
	60	1.01667	1.59975E-001	7.91633E-007	0.00000E+000	1.59995E-001	0.00000E+000	9	...........	1467.52
	61	1.03333	1.60971E-001	8.22457E-007	0.00000E+000	1.60994E-001	0.00000E+000	9	...........	1467.52
	62	1.05	1.61967E-001	8.55819E-007	0.00000E+000	1.61994E-001	0.00000E+000	9	...........	1467.52
	63	1.06667	1.62974E-001	9.02505E-007	0.00000E+000	1.63006E-001	0.00000E+000	9	...........	1467.52
	64	1.08333	1.63987E-001	9.18000E-007	0.00000E+000	1.64006E-001	0.00000E+000	9	...........	1467.52
	65	1.1	1.64965E-001	9.32427E-007	0.00000E+000	1.65005E-001	0.00000E+000	9	...........	1467.52
	66	1.11667	1.65960E-001	9.55870E-007	0.00000E+000	1.66005E-001	0.00000E+000	9	...........	1467.52
	67	1.13333	1.66990E-001	9.83154E-007	0.00000E+000	1.67005E-001	0.00000E+000	9	...........	1467.52
	68	1.15	1.67993E-001	1.01401E-006	0.00000E+000	1.68004E-001	0.00000E+000	9	...........	1467.52
	69	1.16667	1.68987E-001	1.04403E-006	0.00000E+000	1.69004E-001	0.00000E+000	9	...........	1467.52
	70	1.18333	1.69995E-001	1.06347E-006	0.00000E+000	1.70004E-001	0.00000E+000	9	...........	1467.52
	71	1.2	1.70979E-001	1.08324E-006	0.00000E+000	1.71003E-001	0.00000E+000	9	...........	1467.52
	72	1.21667	1.71972E-001	1.09847E-006	0.00000E+000	1.72003E-001	0.00000E+000	9	...........	1467.52
	73	1.23333	1.72981E-001	1.13099E-006	0.00000E+000	1.73003E-001	0.00000E+000	9	...........	1467.52
	74	1.25	1.73972E-001	1.16102E-006	0.00000E+000	1.74002E-001	0.00000E+000	9	...........	1467.52
	75	1.26667	1.74971E-001	1.19151E-006	0.00000E+000	1.75002E-001	0.00000E+000	9	...........	1467.52
	76	1.28333	1.75980E-001	1.21428E-006	0.00000E+000	1.76002E-001	0.00000E+000	9	...........	1467.52
	77	1.3	1.76968E-001	1.22831E-006	0.00000E+000	1.77001E-001	0.00000E+000	9	...........	1467.52
	78	1.31667	1.77966E-001	1.25162E-006	0.00000E+000	1.78001E-001	0.00000E+000	9	...........	1467.52
	79	1.33333	1.78966E-001	1.27509E-006	0.00000E+000	1.79000E-001	0.00000E+000	9	...........	1467.52
	80	1.35	1.79971E-001	1.31026E-006	0.00000E+000	1.80000E-001	0.00000E+000	9	...........	1467.52
	81	1.36667	1.80982E-001	1.33734E-006	0.00000E+000	1.81000E-001	0.00000E+000	9	...........	1467.52
	82	1.38333	1.81987E-001	1.34993E-006	0.00000E+000	1.81999E-001	0.00000E+000	9	...........	1467.52
	83	1.4	1.82984E-001	1.37100E-006	0.00000E+000	1.82999E-001	0.00000E+000	9	...........	1467.52
	84	1.41667	1.83977E-001	1.39071E-006	0.00000E+000	1.83999E-001	0.00000E+000	9	...........	1467.52
	85	1.43333	1.84974E-001	1.41201E-006	0.00000E+000	1.84998E-001	0.00000E+000	9	...........	1467.52
	86	1.45	1.85983E-001	1.44254E-006	0.00000E+000	1.85998E-001	0.00000E+000	9	...........	1467.52
	87	1.46667	1.86981E-001	1.47075E-006	0.00000E+000	1.86998E-001	0.00000E+000	9	...........	1467.52
	88	1.48333	1.87983E-001	1.49209E-006	0.00000E+000	1.87997E-001	0.00000E+000	9	...........	1467.52
	89	1.5	1.88976E-001	1.50515E-006	0.00000E+000	1.88997E-001	0.00000E+000	9	...........	1467.52
	90	1.51667	1.89972E-001	1.52379E-006	0.00000E+000	1.89997E-001	0.00000E+000	9	...........	1467.52
	91	1.53333	1.90970E-001	1.54492E-006	0.00000E+000	1.90996E-001	0.00000E+000	9	...........	1467.52
	92	1.55	1.92001E-001	1.57184E-006	0.00000E+000	1.91996E-001	0.00000E+000	9	...........	1467.52
	93	1.56667	1.93000E-001	1.60333E-006	0.00000E+000	1.92996E-001	0.00000E+000	9	...........	1467.52
	94	1.58333	1.93992E-001	1.62116E-006	0.00000E+000	1.93995E-001	0.00000E+000	9	...........	1467.52
	95	1.6	1.94985E-001	1.63749E-006	0.00000E+000	1.94995E-001	0.00000E+000	9	...........	1467.52
	96	1.61667	1.95982E-001	1.65984E-006	0.00000E+000	1.95995E-001	0.00000E+000	9	...........	1467.52
	97	1.63333	1.96980E-001	1.68485E-006	0.00000E+000	1.96994E-001	0.00000E+000	9	...........	1467.52
	98	1.65	1.97971E-001	1.70969E-006	0.00000E+000	1.97994E-001	0.00000E+000	9	...........	1467.52
	99	1.66667	1.98995E-001	1.75117E-006	0.00000E+000	1.99006E-001	0.00000E+000	9	...........	1467.52
	100	1.68333	1.99987E-001	1.75167E-006	0.00000E+000	2.00006E-001	0.00000E+000	9	...........	1467.52
	101	1.7	2.00979E-001	1.76971E-006	0.00000E+000	2.01005E-001	0.00000E+000	9	...........	1467.52
	102	1.71667	2.01974E-001	1.78570E-006	0.00000E+000	2.02005E-001	0.00000E+000	9	...........	1467.52
	103	1.73333	2.02971E-001	1.81058E-006	0.00000E+000	2.03005E-001	0.00000E+000	9	...........	1467.52
	104	1.75	2.03968E-001	1.83984E-006	0.00000E+000	2.04004E-001	0.00000E+000	9	...........	1467.52
	105	1.76667	2.04981E-001	1.86622E-006	0.00000E+000	2.05004E-001	0.00000E+000	9	...........	1467.52
	106	1.78333	2.05976E-001	1.88378E-006	0.00000E+000	2.06004E-001	0.00000E+000	9	...........	1467.52
	107	1.8	2.06965E-001	1.89434E-006	0.00000E+000	2.07003E-001	0.00000E+000	9	...........	1467.52
	108	1.81667	2.07973E-001	1.91821E-006	0.00000E+000	2.08003E-001	0.00000E+000	9	...........	1467.52
	109	1.83333	2.08966E-001	1.93655E-006	0.00000E+000	2.09003E-001	0.00000E+000	9	...........	1467.52
	110	1.85	2.09967E-001	1.96123E-006	0.00000E+000	2.10002E-001	0.00000E+000	9	...........	1467.52
	111	1.86667	2.10965E-001	1.99499E-006	0.00000E+000	2.11002E-001	0.00000E+000	9	...........	1467.52
	112	1.88333	2.11971E-001	2.01132E-006	0.00000E+000	2.12001E-001	0.00000E+000	9	...........	1467.52
	113	1.9	2.12958E-001	2.02050E-006	0.00000E+000	2.13001E-001	0.00000E+000	9	...........	1467.52
	114	1.91667	2.13951E-001	2.03753E-006	0.00000E+000	2.14001E-001	0.00000E+000	9	...........	1467.52
	115	1.93333	2.14958E-001	2.06275E-006	0.00000E+000	2.15000E-001	0.00000E+000	9	...........	1467.52
	116	1.95	2.15957E-001	2.08616E-006	0.00000E+000	2.16000E-001	0.00000E+000	9	...........	1467.52
	117	1.96667	2.16949E-001	2.10850E-006	0.00000E+000	2.17000E-001	0.00000E+000	9	...........	1467.52
	118	1.98333	2.17982E-001	2.12934E-006	0.00000E+000	2.17999E-001	0.00000E+000	9	...........	1467.52
	119	2	2.18968E-001	2.14533E-006	0.00000E+000	2.18999E-001	0.00000E+000	9	...........	1467.52
	120	2.01667	2.19967E-001	2.16420E-006	0.00000E+000	2.19999E-001	0.00000E+000	9	...........	1467.52
	121	2.03333	2.20976E-001	2.18314E-006	0.00000E+000	2.20998E-001	0.00000E+000	9	...........	1467.52
	122	2.05	2.21971E-001	2.21229E-006	0.00000E+000	2.21998E-001	0.00000E+000	9	...........	1467.52
	123	2.06667	2.22973E-001	2.23680E-006	0.00000E+000	2.22998E-001	0.00000E+000	9	...........	1467.52
	124	2.08333	2.23978E-001	2.25417E-006	0.00000E+000	2.23997E-001	0.00000E+000	9	...........	1467.52
	125	2.1	2.24963E-001	2.26656E-006	0.00000E+000	2.24997E-001	0.00000E+000	9	...........	1467.52
	126	2.11667	2.25954E-001	2.28165E-006	0.00000E+000	2.25997E-001	0.00000E+000	9	...........	1467.52
	127	2.13333	2.26957E-001	2.30549E-006	0.00000E+000	2.26996E-001	0.00000E+000	9	...........	1467.52
	128	2.15	2.27967E-001	2.32997E-006	0.00000E+000	2.27996E-001	0.00000E+000	9	...........	1467.52
	129	2.16667	2.28958E-001	2.35278E-006	0.00000E+000	2.28996E-001	0.00000E+000	9	...........	1467.52
	130	2.18333	2.29957E-001	2.37566E-006	0.00000E+000	2.29995E-001	0.00000E+000	9	...........	1467.52
	131	2.2	2.30967E-001	2.38631E-006	0.00000E+000	2.30995E-001	0.00000E+000	9	...........	1467.52
	132	2.21667	2.31979E-001	2.40110E-006	0.00000E+000	2.31994E-001	0.00000E+000	9	...........	1467.52
	133	2.23333	2.32977E-001	2.42321E-006	0.00000E+000	2.32994E-001	0.00000E+000	9	...........	1467.52
	134	2.25	2.33976E-001	2.45143E-006	0.00000E+000	2.33994E-001	0.00000E+000	9	...........	1467.52
	135	2.26667	2.34984E-001	2.48646E-006	0.00000E+000	2.35006E-001	0.00000E+000	9	...........	1467.52
	136	2.28333	2.35976E-001	2.49368E-006	0.00000E+000	2.36006E-001	0.00000E+000	9	...........	1467.52
	137	2.3	2.36982E-001	2.51201E-006	0.00000E+000	2.37005E-001	0.00000E+000	9	...........	1467.52
	138	2.31667	2.37972E-001	2.52029E-006	0.00000E+000	2.38005E-001	0.00000E+000	9	...........	1467.52
	139	2.33333	2.38976E-001	2.53836E-006	0.00000E+000	2.39005E-001	0.00000E+000	9	...........	1467.52
	140	2.35	2.39974E-001	2.56517E-006	0.00000E+000	2.40004E-001	0.00000E+000	9	...........	1467.52
	141	2.36667	2.40961E-001	2.59005E-006	0.00000E+000	2.41004E-001	0.00000E+000	9	...........	1467.52
	142	2.38333	2.41963E-001	2.61280E-006	0.00000E+000	2.42004E-001	0.00000E+000	9	...........	1467.52
	143	2.4	2.42973E-001	2.62181E-006	0.00000E+000	2.43003E-001	0.00000E+000	9	...........	1467.52
	144	2.41667	2.43983E-001	2.63644E-006	0.00000E+000	2.44003E-001	0.00000E+000	9	...........	1467.52
	145	2.43333	2.44984E-001	2.65274E-006	0.00000E+000	2.45002E-001	0.00000E+000	9	...........	1467.52
	146	2.45	2.45973E-001	2.67959E-006	0.00000E+000	2.46002E-001	0.00000E+000	9	...........	1467.52
	147	2.46667	2.46964E-001	2.71161E-006	0.00000E+000	2.47002E-001	0.00000E+000	9	...........	1467.52
	148	2.48333	2.47963E-001	2.72253E-006	0.00000E+000	2.48001E-001	0.00000E+000	9	...........	1467.52
	149	2.5	2.48967E-001	2.73996E-006	0.00000E+000	2.49001E-001	0.00000E+000	9	...........	1467.52
	150	2.51667	2.49969E-001	2.74998E-006	0.00000E+000	2.50001E-001	0.00000E+000	9	...........	1467.52
	151	2.53333	2.50960E-001	2.76885E-006	0.00000E+000	2.51000E-001	0.00000E+000	9	...........	1467.52
	152	2.55	2.51952E-001	2.79052E-006	0.00000E+000	2.52000E-001	0.00000E+000	9	...........	1467.52
	153	2.56667	2.52947E-001	2.82976E-006	0.00000E+000	2.53000E-001	0.00000E+000	9	...........	1467.52
	154	2.58333	2.53939E-001	2.84863E-006	0.00000E+000	2.53999E-001	0.00000E+000	9	...........	1467.52
	155	2.6	2.54942E-001	2.86726E-006	0.00000E+000	2.54999E-001	0.00000E+000	9	...........	1467.52
	156	2.61667	2.55956E-001	2.87374E-006	0.00000E+000	2.55999E-001	0.00000E+000	9	...........	1467.52
	157	2.63333	2.56961E-001	2.89492E-006	0.00000E+000	2.56998E-001	0.00000E+000	9	...........	1467.52
	158	2.65	2.57957E-001	2.91929E-006	0.00000E+000	2.57998E-001	0.00000E+000	9	...........	1467.52
	159	2.66667	2.58956E-001	2.95202E-006	0.00000E+000	2.58998E-001	0.00000E+000	9	...........	1467.52
	160	2.68333	2.59954E-001	2.96839E-006	0.00000E+000	2.59997E-001	0.00000E+000	9	...........	1467.52
	161	2.7	2.60949E-001	2.98224E-006	0.00000E+000	2.60997E-001	0.00000E+000	9	...........	1467.52
	162	2.71667	2.61950E-001	2.99794E-006	0.00000E+000	2.61997E-001	0.00000E+000	9	...........	1467.52
	163	2.73333	2.62954E-001	3.01310E-006	0.00000E+000	2.62996E-001	0.00000E+000	9	...........	1467.52
	164	2.75	2.63957E-001	3.04205E-006	0.00000E+000	2.63996E-001	0.00000E+000	9	...........	1467.52
	165	2.76667	2.64962E-001	3.07014E-006	0.00000E+000	2.64995E-001	0.00000E+000	9	...........	1467.52
	166	2.78333	2.65960E-001	3.09485E-006	0.00000E+000	2.65995E-001	0.00000E+000	9	...........	1467.52
	167	2.8	2.66954E-001	3.10978E-006	0.00000E+000	2.66995E-001	0.00000E+000	9	...........	1467.52
	168	2.81667	2.67955E-001	3.12120E-006	0.00000E+000	2.67994E-001	0.00000E+000	9	...........	1467.52
	169	2.83333	2.68985E-001	3.14518E-006	0.00000E+000	2.68994E-001	0.00000E+000	9	...........	1467.52
	170	2.85	2.69979E-001	3.17333E-006	0.00000E+000	2.69994E-001	0.00000E+000	9	...........	1467.52
	171	2.86667	2.70990E-001	3.20926E-006	0.00000E+000	2.71006E-001	0.00000E+000	9	...........	1467.52
	172	2.88333	2.71977E-001	3.22713E-006	0.00000E+000	2.72006E-001	0.00000E+000	9	...........	1467.52
	173	2.9	2.72976E-001	3.23929E-006	0.00000E+000	2.73005E-001	0.00000E+000	9	...........	1467.52
	174	2.91667	2.73971E-001	3.25889E-006	0.00000E+000	2.74005E-001	0.00000E+000	9	...........	1467.52
	175	2.93333	2.74969E-001	3.27408E-006	0.00000E+000	2.75004E-001	0.00000E+000	9	...........	1467.52
	176	2.95	2.75979E-001	3.30197E-006	0.00000E+000	2.76004E-001	0.00000E+000	9	...........	1467.52
	177	2.96667	2.76981E-001	3.33289E-006	0.00000E+000	2.77004E-001	0.00000E+000	9	...........	1467.52
	178	2.98333	2.77974E-001	3.35837E-006	0.00000E+000	2.78003E-001	0.00000E+000	9	...........	1467.52
	179	3	2.78971E-001	3.37170E-006	0.00000E+000	2.79003E-001	0.00000E+000	9	...........	1467.52
	180	3.01667	2.79967E-001	3.39103E-006	0.00000E+000	2.80003E-001	0.00000E+000	9	...........	1467.52
	181	3.03333	2.80965E-001	3.40446E-006	0.00000E+000	2.81002E-001	0.00000E+000	9	...........	1467.52
	182	3.05	2.81976E-001	3.44163E-006	0.00000E+000	2.82002E-001	0.00000E+000	9	...........	1467.52
	183	3.06667	2.82987E-001	3.47075E-006	0.00000E+000	2.83002E-001	0.00000E+000	9	...........	1467.52
	184	3.08333	2.83995E-001	3.49295E-006	0.00000E+000	2.84001E-001	0.00000E+000	9	...........	1467.52
	185	3.1	2.84980E-001	3.50895E-006	0.00000E+000	2.85001E-001	0.00000E+000	9	...........	1467.52
	186	3.11667	2.85974E-001	3.52495E-006	0.00000E+000	2.86001E-001	0.00000E+000	9	...........	1467.52
	187	3.13333	2.86979E-001	3.54348E-006	0.00000E+000	2.87000E-001	0.00000E+000	9	...........	1467.52
	188	3.15	2.87980E-001	3.57651E-006	0.00000E+000	2.88000E-001	0.00000E+000	9	...........	1467.52
	189	3.16667	2.88973E-001	3.60566E-006	0.00000E+000	2.89000E-001	0.00000E+000	9	...........	1467.52
	190	3.18333	2.89967E-001	3.62971E-006	0.00000E+000	2.89999E-001	0.00000E+000	9	...........	1467.52
	191	3.2	2.90950E-001	3.64771E-006	0.00000E+000	2.90999E-001	0.00000E+000	9	...........	1467.52
	192	3.21667	2.91957E-001	3.67068E-006	0.00000E+000	2.91999E-001	0.00000E+000	9	...........	1467.52
	193	3.23333	2.92954E-001	3.69252E-006	0.00000E+000	2.92998E-001	0.00000E+000	9	...........	1467.52
	194	3.25	2.93956E-001	3.72391E-006	0.00000E+000	2.93998E-001	0.00000E+000	9	...........	1467.52
	195	3.26667	2.94987E-001	3.75995E-006	0.00000E+000	2.94998E-001	0.00000E+000	9	...........	1467.52
	196	3.28333	2.95983E-001	3.78349E-006	0.00000E+000	2.95997E-001	0.00000E+000	9	...........	1467.52
	197	3.3	2.96977E-001	3.80473E-006	0.00000E+000	2.96997E-001	0.00000E+000	9	...........	1467.52
	198	3.31667	2.97977E-001	3.82617E-006	0.00000E+000	2.97996E-001	0.00000E+000	9	...........	1467.52
	199	3.33333	2.98975E-001	3.84247E-006	0.00000E+000	2.98996E-001	0.00000E+000	9	...........	1467.52
	200	3.35	2.99973E-001	3.88060E-006	0.00000E+000	2.99996E-001	0.00000E+000	9	...........	1467.52
	201	3.36667	2.98995E-001	1.98684E-006	0.00000E+000	2.98996E-001	0.00000E+000	9	...........	1467.52
	202	3.38333	2.97996E-001	1.79492E-006	0.00000E+000	2.97996E-001	0.00000E+000	9	...........	1467.52
	203	3.4	2.96985E-001	1.63977E-006	0.00000E+000	2.96997E-001	0.00000E+000	9	...........	1467.52
	204	3.41667	2.96001E-001	1.52018E-006	0.00000E+000	2.95997E-001	0.00000E+000	9	...........	1467.52
	205	3.43333	2.95007E-001	1.41772E-006	0.00000E+000	2.94998E-001	0.00000E+000	9	...........	1467.52
	206	3.45	2.93984E-001	1.33206E-006	0.00000E+000	2.93998E-001	0.00000E+000	9	...........	1467.52
	207	3.46667	2.92994E-001	1.25980E-006	0.00000E+000	2.92998E-001	0.00000E+000	9	...........	1467.52
	208	3.48333	2.91997E-001	1.19017E-006	0.00000E+000	2.91999E-001	0.00000E+000	9	...........	1467.52
	209	3.5	2.90989E-001	1.11603E-006	0.00000E+000	2.90999E-001	0.00000E+000	9	...........	1467.52
	210	3.51667	2.89992E-001	1.04340E-006	0.00000E+000	2.89999E-001	0.00000E+000	9	...........	1467.52
	211	3.53333	2.88999E-001	9.84723E-007	0.00000E+000	2.89000E-001	0.00000E+000	9	...........	1467.52
	212	3.55	2.88003E-001	9.38304E-007	0.00000E+000	2.88000E-001	0.00000E+000	9	...........	1467.52
	213	3.56667	2.86989E-001	8.93655E-007	0.00000E+000	2.87000E-001	0.00000E+000	9	...........	1467.52
	214	3.58333	2.85989E-001	8.50475E-007	0.00000E+000	2.86001E-001	0.00000E+000	9	...........	1467.52
	215	3.6	2.84994E-001	7.92669E-007	0.00000E+000	2.85001E-001	0.00000E+000	9	...........	1467.52
	216	3.61667	2.84003E-001	7.40172E-007	0.00000E+000	2.84001E-001	0.00000E+000	9	...........	1467.52
	217	3.63333	2.82991E-001	6.93486E-007	0.00000E+000	2.83002E-001	0.00000E+000	9	...........	1467.52
	218	3.65	2.81992E-001	6.53812E-007	0.00000E+000	2.82002E-001	0.00000E+000	9	...........	1467.52
	219	3.66667	2.80988E-001	6.12169E-007	0.00000E+000	2.81002E-001	0.00000E+000	9	...........	1467.52
	220	3.68333	2.79990E-001	5.81880E-007	0.00000E+000	2.80003E-001	0.00000E+000	9	...........	1467.52
	221	3.7	2.78990E-001	5.30318E-007	0.00000E+000	2.79003E-001	0.00000E+000	9	...........	1467.52
	222	3.71667	2.77997E-001	4.82396E-007	0.00000E+000	2.78003E-001	0.00000E+000	9	...........	1467.52
	223	3.73333	2.77002E-001	4.44893E-007	0.00000E+000	2.77004E-001	0.00000E+000	9	...........	1467.52
	224	3.75	2.76003E-001	4.11098E-007	0.00000E+000	2.76004E-001	0.00000E+000	9	...........	1467.52
	225	3.76667	2.74998E-001	3.87521E-007	0.00000E+000	2.75004E-001	0.00000E+000	9	...........	1467.52
	226	3.78333	2.74000E-001	3.52389E-007	0.00000E+000	2.74005E-001	0.00000E+000	9	...........	1467.52
	227	3.8	2.73004E-001	3.11280E-007	0.00000E+000	2.73005E-001	0.00000E+000	9	...........	1467.52
	228	3.81667	2.72005E-001	2.72108E-007	0.00000E+000	2.72006E-001	0.00000E+000	9	...........	1467.52
	229	3.83333	2.71015E-001	2.38412E-007	0.00000E+000	2.71006E-001	0.00000E+000	9	...........	1467.52
	230	3.85	2.70002E-001	1.98439E-007	0.00000E+000	2.69994E-001	0.00000E+000	9	...........	1467.52
	231	3.86667	2.69013E-001	1.83678E-007	0.00000E+000	2.68994E-001	0.00000E+000	9	...........	1467.52
	232	3.88333	2.67981E-001	1.62506E-007	0.00000E+000	2.67994E-001	0.00000E+000	9	...........	1467.52
	233	3.9	2.66971E-001	1.21630E-007	0.00000E+000	2.66995E-001	0.00000E+000	9	...........	1467.52
	234	3.91667	2.65979E-001	8.43279E-008	0.00000E+000	2.65995E-001	0.00000E+000	9	...........	1467.52
	235	3.93333	2.64975E-001	4.94301E-008	0.00000E+000	2.64995E-001	0.00000E+000	9	...........	1467.52
	236	3.95	2.63985E-001	3.18310E-008	0.00000E+000	2.63996E-001	0.00000E+000	9	...........	1467.52
	237	3.96667	2.62986E-001	1.03246E-008	0.00000E+000	2.62996E-001	0.00000E+000	9	...........	1467.52
	238	3.98333	2.61975E-001	-1.02133E-008	0.00000E+000	2.61997E-001	0.00000E+000	9	...........	1467.52
	239	4	2.60984E-001	-4.78494E-008	0.00000E+000	2.60997E-001	0.00000E+000	9	...........	1467.52
	240	4.01667	2.59986E-001	-8.02426E-008	0.00000E+000	2.59997E-001	0.00000E+000	9	...........	1467.52
	241	4.03333	2.58989E-001	-1.14706E-007	0.00000E+000	2.58998E-001	0.00000E+000	9	...........	1467.52
	242	4.05	2.57991E-001	-1.29200E-007	0.00000E+000	2.57998E-001	0.00000E+000	9	...........	1467.52
	243	4.06667	2.56997E-001	-1.56550E-007	0.00000E+000	2.56998E-001	0.00000E+000	9	...........	1467.52
	244	4.08333	2.55992E-001	-1.78190E-007	0.00000E+000	2.55999E-001	0.00000E+000	9	...........	1467.52
	245	4.1	2.54975E-001	-2.15993E-007	0.00000E+000	2.54999E-001	0.00000E+000	9	...........	1467.52
	246	4.11667	2.53972E-001	-2.49555E-007	0.00000E+000	2.53999E-001	0.00000E+000	9	...........	1467.52
	247	4.13333	2.52982E-001	-2.70828E-007	0.00000E+000	2.53000E-001	0.00000E+000	9	...........	1467.52
	248	4.15	2.51990E-001	-3.02753E-007	0.00000E+000	2.52000E-001	0.00000E+000	9	...........	1467.52
	249	4.16667	2.50997E-001	-3.16512E-007	0.00000E+000	2.51000E-001	0.00000E+000	9	...........	1467.52
	250	4.18333	2.50002E-001	-3.45699E-007	0.00000E+000	2.50001E-001	0.00000E+000	9	...........	1467.52
	251	4.2	2.48995E-001	-3.74152E-007	0.00000E+000	2.49001E-001	0.00000E+000	9	...........	1467.52
	252	4.21667	2.48004E-001	-4.01536E-007	0.00000E+000	2.48001E-001	0.00000E+000	9	...........	1467.52
	253	4.23333	2.47007E-001	-4.27651E-007	0.00000E+000	2.47002E-001	0.00000E+000	9	...........	1467.52
	254	4.25	2.46007E-001	-4.46719E-007	0.00000E+000	2.46002E-001	0.00000E+000	9	...........	1467.52
	255	4.26667	2.45010E-001	-4.58942E-007	0.00000E+000	2.45002E-001	0.00000E+000	9	...........	1467.52
	256	4.28333	2.44014E-001	-4.85457E-007	0.00000E+000	2.44003E-001	0.00000E+000	9	...........	1467.52
	257	4.3	2.43016E-001	-5.15179E-007	0.00000E+000	2.43003E-001	0.00000E+000	9	...........	1467.52
	258	4.31667	2.41998E-001	-5.45969E-007	0.00000E+000	2.42004E-001	0.00000E+000	9	...........	1467.52
	259	4.33333	2.40994E-001	-5.79030E-007	0.00000E+000	2.41004E-001	0.00000E+000	9	...........	1467.52
	260	4.35	2.40011E-001	-5.93791E-007	0.00000E+000	2.40004E-001	0.00000E+000	9	...........	1467.52
	261	4.36667	2.38998E-001	-6.06547E-007	0.00000E+000	2.39005E-001	0.00000E+000	9	...........	1467.52
	262	4.38333	2.38000E-001	-6.32829E-007	0.00000E+000	2.38005E-001	0.00000E+000	9	...........	1467.52
	263	4.4	2.37008E-001	-6.61883E-007	0.00000E+000	2.37005E-001	0.00000E+000	9	...........	1467.52
	264	4.41667	2.36000E-001	-6.93608E-007	0.00000E+000	2.36006E-001	0.00000E+000	9	...........	1467.52
	265	4.43333	2.35006E-001	-7.16918E-007	0.00000E+000	2.35006E-001	0.00000E+000	9	...........	1467.52
	266	4.45	2.34003E-001	-7.53886E-007	0.00000E+000	2.33994E-001	0.00000E+000	9	...........	1467.52
	267	4.46667	2.32997E-001	-7.50947E-007	0.00000E+000	2.32994E-001	0.00000E+000	9	...........	1467.52
	268	4.48333	2.32001E-001	-7.79266E-007	0.00000E+000	2.31994E-001	0.00000E+000	9	...........	1467.52
	269	4.5	2.31000E-001	-8.01073E-007	0.00000E+000	2.30995E-001	0.00000E+000	9	...........	1467.52
	270	4.51667	2.29986E-001	-8.32598E-007	0.00000E+000	2.29995E-001	0.00000E+000	9	...........	1467.52
	271	4.53333	2.28986E-001	-8.60282E-007	0.00000E+000	2.28996E-001	0.00000E+000	9	...........	1467.52
	272	4.55	2.27986E-001	-8.80186E-007	0.00000E+000	2.27996E-001	0.00000E+000	9	...........	1467.52
	273	4.56667	2.26982E-001	-8.95347E-007	0.00000E+000	2.26996E-001	0.00000E+000	9	...........	1467.52
	274	4.58333	2.25988E-001	-9.17154E-007	0.00000E+000	2.25997E-001	0.00000E+000	9	...........	1467.52
	275	4.6	2.24995E-001	-9.45239E-007	0.00000E+000	2.24997E-001	0.00000E+000	9	...........	1467.52
	276	4.61667	2.24011E-001	-9.74059E-007	0.00000E+000	2.23997E-001	0.00000E+000	9	...........	1467.52
	277	4.63333	2.23000E-001	-1.00208E-006	0.00000E+000	2.22998E-001	0.00000E+000	9	...........	1467.52
	278	4.65	2.22000E-001	-1.01867E-006	0.00000E+000	2.21998E-001	0.00000E+000	9	...........	1467.52
	279	4.66667	2.21001E-001	-1.03834E-006	0.00000E+000	2.20998E-001	0.00000E+000	9	...........	1467.52
	280	4.68333	2.19997E-001	-1.05531E-006	0.00000E+000	2.19999E-001	0.00000E+000	9	...........	1467.52
	281	4.7	2.18998E-001	-1.08607E-006	0.00000E+000	2.18999E-001	0.00000E+000	9	...........	1467.52
	282	4.71667	2.18016E-001	-1.11502E-006	0.00000E+000	2.17999E-001	0.00000E+000	9	...........	1467.52
	283	4.73333	2.16987E-001	-1.14167E-006	0.00000E+000	2.17000E-001	0.00000E+000	9	...........	1467.52
	284	4.75	2.15991E-001	-1.15837E-006	0.00000E+000	2.16000E-001	0.00000E+000	9	...........	1467.52
	285	4.76667	2.14993E-001	-1.17072E-006	0.00000E+000	2.15000E-001	0.00000E+000	9	...........	1467.52
	286	4.78333	2.13983E-001	-1.18902E-006	0.00000E+000	2.14001E-001	0.00000E+000	9	...........	1467.52
	287	4.8	2.12982E-001	-1.21313E-006	0.00000E+000	2.13001E-001	0.00000E+000	9	...........	1467.52
	288	4.81667	2.11997E-001	-1.24603E-006	0.00000E+000	2.12001E-001	0.00000E+000	9	...........	1467.52
	289	4.83333	2.10989E-001	-1.26864E-006	0.00000E+000	2.11002E-001	0.00000E+000	9	...........	1467.52
	290	4.85	2.09987E-001	-1.29495E-006	0.00000E+000	2.10002E-001	0.00000E+000	9	...........	1467.52
	291	4.86667	2.08994E-001	-1.30530E-006	0.00000E+000	2.09003E-001	0.00000E+000	9	...........	1467.52
	292	4.88333	2.07999E-001	-1.32404E-006	0.00000E+000	2.08003E-001	0.00000E+000	9	...........	1467.52
	293	4.9	2.06992E-001	-1.35476E-006	0.00000E+000	2.07003E-001	0.00000E+000	9	...........	1467.52
	294	4.91667	2.06006E-001	-1.37904E-006	0.00000E+000	2.06004E-001	0.00000E+000	9	...........	1467.52
	295	4.93333	2.05014E-001	-1.40399E-006	0.00000E+000	2.05004E-001	0.00000E+000	9	...........	1467.52
	296	4.95	2.03999E-001	-1.42623E-006	0.00000E+000	2.04004E-001	0.00000E+000	9	...........	1467.52
	297	4.96667	2.03001E-001	-1.43975E-006	0.00000E+000	2.03005E-001	0.00000E+000	9	...........	1467.52
	298	4.98333	2.02009E-001	-1.46052E-006	0.00000E+000	2.02005E-001	0.00000E+000	9	...........	1467.52
	299	5	2.01000E-001	-1.49085E-006	0.00000E+000	2.01005E-001	0.00000E+000	9	...........	1467.52
	300	5.01667	2.00013E-001	-1.52351E-006	0.00000E+000	2.00006E-001	0.00000E+000	9	...........	1467.52
	301	5.03333	1.99016E-001	-1.54475E-006	0.00000E+000	1.99006E-001	0.00000E+000	9	...........	1467.52
	302	5.05	1.97990E-001	-1.57831E-006	0.00000E+000	1.97994E-001	0.00000E+000	9	...........	1467.52
	303	5.06667	1.96998E-001	-1.57931E-006	0.00000E+000	1.96994E-001	0.00000E+000	9	...........	1467.52
	304	5.08333	1.95992E-001	-1.59774E-006	0.00000E+000	1.95995E-001	0.00000E+000	9	...........	1467.52
	305	5.1	1.94992E-001	-1.62900E-006	0.00000E+000	1.94995E-001	0.00000E+000	9	...........	1467.52
	306	5.11667	1.94001E-001	-1.66043E-006	0.00000E+000	1.93995E-001	0.00000E+000	9	...........	1467.52
	307	5.13333	1.93005E-001	-1.68464E-006	0.00000E+000	1.92996E-001	0.00000E+000	9	...........	1467.52
	308	5.15	1.92012E-001	-1.70928E-006	0.00000E+000	1.91996E-001	0.00000E+000	9	...........	1467.52
	309	5.16667	1.90983E-001	-1.72448E-006	0.00000E+000	1.90996E-001	0.00000E+000	9	...........	1467.52
	310	5.18333	1.89984E-001	-1.74705E-006	0.00000E+000	1.89997E-001	0.00000E+000	9	...........	1467.52
	311	5.2	1.88989E-001	-1.77631E-006	0.00000E+000	1.88997E-001	0.00000E+000	9	...........	1467.52
	312	5.21667	1.87999E-001	-1.80483E-006	0.00000E+000	1.87997E-001	0.00000E+000	9	...........	1467.52
	313	5.23333	1.87005E-001	-1.82964E-006	0.00000E+000	1.86998E-001	0.00000E+000	9	...........	1467.52
	314	5.25	1.86011E-001	-1.85064E-006	0.00000E+000	1.85998E-001	0.00000E+000	9	...........	1467.52
	315	5.26667	1.85006E-001	-1.87125E-006	0.00000E+000	1.84998E-001	0.00000E+000	9	...........	1467.52
	316	5.28333	1.84009E-001	-1.88788E-006	0.00000E+000	1.83999E-001	0.00000E+000	9	...........	1467.52
	317	5.3	1.83012E-001	-1.91763E-006	0.00000E+000	1.82999E-001	0.00000E+000	9	...........	1467.52
	318	5.31667	1.82015E-001	-1.95253E-006	0.00000E+000	1.81999E-001	0.00000E+000	9	...........	1467.52
	319	5.33333	1.81013E-001	-1.97544E-006	0.00000E+000	1.81000E-001	0.00000E+000	9	...........	1467.52
	320	5.35	1.80003E-001	-1.99845E-006	0.00000E+000	1.80000E-001	0.00000E+000	9	...........	1467.52
	321	5.36667	1.78988E-001	-2.01922E-006	0.00000E+000	1.79000E-001	0.00000E+000	9	...........	1467.52
	322	5.38333	1.77991E-001	-2.04263E-006	0.00000E+000	1.78001E-001	0.00000E+000	9	...........	1467.52
	323	5.4	1.76994E-001	-2.06928E-006	0.00000E+000	1.77001E-001	0.00000E+000	9	...........	1467.52
	324	5.41667	1.76004E-001	-2.09867E-006	0.00000E+000	1.76002E-001	0.00000E+000	9	...........	1467.52
	325	5.43333	1.75002E-001	-2.13350E-006	0.00000E+000	1.75002E-001	0.00000E+000	9	...........	1467.52
	326	5.45	1.74009E-001	-2.15013E-006	0.00000E+000	1.74002E-001	0.00000E+000	9	...........	1467.52
	327	5.46667	1.73002E-001	-2.16272E-006	0.00000E+000	1.73003E-001	0.00000E+000	9	...........	1467.52
	328	5.48333	1.71997E-001	-2.18643E-006	0.00000E+000	1.72003E-001	0.00000E+000	9	...........	1467.52
	329	5.5	1.70996E-001	-2.21408E-006	0.00000E+000	1.71003E-001	0.00000E+000	9	...........	1467.52
	330	5.51667	1.70008E-001	-2.25449E-006	0.00000E+000	1.70004E-001	0.00000E+000	9	...........	1467.52
	331	5.53333	1.69004E-001	-2.27516E-006	0.00000E+000	1.69004E-001	0.00000E+000	9	...........	1467.52
	332	5.55	1.68014E-001	-2.29754E-006	0.00000E+000	1.68004E-001	0.00000E+000	9	...........	1467.52
	333	5.56667	1.67013E-001	-2.31517E-006	0.00000E+000	1.67005E-001	0.00000E+000	9	...........	1467.52
	334	5.58333	1.65985E-001	-2.33531E-006	0.00000E+000	1.66005E-001	0.00000E+000	9	...........	1467.52
	335	5.6	1.64990E-001	-2.36653E-006	0.00000E+000	1.65005E-001	0.00000E+000	9	...........	1467.52
	336	5.61667	1.64005E-001	-2.39348E-006	0.00000E+000	1.64006E-001	0.00000E+000	9	...........	1467.52
	337	5.63333	1.62997E-001	-2.42955E-006	0.00000E+000	1.63006E-001	0.00000E+000	9	...........	1467.52
	338	5.65	1.61991E-001	-2.46047E-006	0.00000E+000	1.61994E-001	0.00000E+000	9	...........	1467.52
	339	5.66667	1.60992E-001	-2.46618E-006	0.00000E+000	1.60994E-001	0.00000E+000	9	...........	1467.52
	340	5.68333	1.59997E-001	-2.48772E-006	0.00000E+000	1.59995E-001	0.00000E+000	9	...........	1467.52
	341	5.7	1.58995E-001	-2.51931E-006	0.00000E+000	1.58995E-001	0.00000E+000	9	...........	1467.52
	342	5.71667	1.58002E-001	-2.55327E-006	0.00000E+000	1.57995E-001	0.00000E+000	9	...........	1467.52
	343	5.73333	1.57002E-001	-2.58219E-006	0.00000E+000	1.56996E-001	0.00000E+000	9	...........	1467.52
	344	5.75	1.55997E-001	-2.60377E-006	0.00000E+000	1.55996E-001	0.00000E+000	9	...........	1467.52
	345	5.76667	1.55000E-001	-2.62340E-006	0.00000E+000	1.54996E-001	0.00000E+000	9	...........	1467.52
	346	5.78333	1.53986E-001	-2.64745E-006	0.00000E+000	1.53997E-001	0.00000E+000	9	...........	1467.52
	347	5.8	1.52980E-001	-2.67330E-006	0.00000E+000	1.52997E-001	0.00000E+000	9	...........	1467.52
	348	5.81667	1.51986E-001	-2.70679E-006	0.00000E+000	1.51997E-001	0.00000E+000	9	...........	1467.52
	349	5.83333	1.50989E-001	-2.73461E-006	0.00000E+000	1.50998E-001	0.00000E+000	9	...........	1467.52
	350	5.85	1.49997E-001	-2.75862E-006	0.00000E+000	1.49998E-001	0.00000E+000	9	...........	1467.52
	351	5.86667	1.48999E-001	-2.77488E-006	0.00000E+000	1.48998E-001	0.00000E+000	9	...........	1467.52
	352	5.88333	1.48013E-001	-2.78991E-006	0.00000E+000	1.47999E-001	0.00000E+000	9	...........	1467.52
	353	5.9	1.47012E-001	-2.81970E-006	0.00000E+000	1.46999E-001	0.00000E+000	9	...........	1467.52
	354	5.91667	1.46007E-001	-2.85246E-006	0.00000E+000	1.46000E-001	0.00000E+000	9	...........	1467.52
	355	5.93333	1.45008E-001	-2.88492E-006	0.00000E+000	1.45000E-001	0.00000E+000	9	...........	1467.52
	356	5.95	1.44012E-001	-2.90255E-006	0.00000E+000	1.44000E-001	0.00000E+000	9	...........	1467.52
	357	5.96667	1.43014E-001	-2.92346E-006	0.00000E+000	1.43001E-001	0.00000E+000	9	...........	1467.52
	358	5.98333	1.42014E-001	-2.93975E-006	0.00000E+000	1.42001E-001	0.00000E+000	9	...........	1467.52
	359	6	1.41022E-001	-2.97372E-006	0.00000E+000	1.41001E-001	0.00000E+000	9	...........	1467.52
	360	6.01667	1.39999E-001	-3.00270E-006	0.00000E+000	1.40002E-001	0.00000E+000	9	...........	1467.52
	361	6.03333	1.39009E-001	-3.03697E-006	0.00000E+000	1.39002E-001	0.00000E+000	9	...........	1467.52
	362	6.05	1.38017E-001	-3.05720E-006	0.00000E+000	1.38002E-001	0.00000E+000	9	...........	1467.52
	363	6.06667	1.37010E-001	-3.07270E-006	0.00000E+000	1.37003E-001	0.00000E+000	9	...........	1467.52
	364	6.08333	1.36002E-001	-3.09678E-006	0.00000E+000	1.36003E-001	0.00000E+000	9	...........	1467.52
	365	6.1	1.35001E-001	-3.12970E-006	0.00000E+000	1.35003E-001	0.00000E+000	9	...........	1467.52
	366	6.11667	1.34005E-001	-3.15562E-006	0.00000E+000	1.34004E-001	0.00000E+000	9	...........	1467.52
	367	6.13333	1.33022E-001	-3.18878E-006	0.00000E+000	1.33004E-001	0.00000E+000	9	...........	1467.52
	368	6.15	1.32029E-001	-3.20935E-006	0.00000E+000	1.32004E-001	0.00000E+000	9	...........	1467.52
	369	6.16667	1.31022E-001	-3.23173E-006	0.00000E+000	1.31005E-001	0.00000E+000	9	...........	1467.52
	370	6.18333	1.30010E-001	-3.25347E-006	0.00000E+000	1.30005E-001	0.00000E+000	9	...........	1467.52
	371	6.2	1.29016E-001	-3.27544E-006	0.00000E+000	1.29005E-001	0.00000E+000	9	...........	1467.52
	372	6.21667	1.28013E-001	-3.31051E-006	0.00000E+000	1.28006E-001	0.00000E+000	9	...........	1467.52
	373	6.23333	1.27001E-001	-3.33692E-006	0.00000E+000	1.27006E-001	0.00000E+000	9	...........	1467.52
	374	6.25	1.25985E-001	-3.37032E-006	0.00000E+000	1.25994E-001	0.00000E+000	9	...........	1467.52
	375	6.26667	1.24991E-001	-3.38080E-006	0.00000E+000	1.24994E-001	0.00000E+000	9	...........	1467.52
	376	6.28333	1.23983E-001	-3.40364E-006	0.00000E+000	1.23995E-001	0.00000E+000	9	...........	1467.52
	377	6.3	1.22982E-001	-3.42999E-006	0.00000E+000	1.22995E-001	0.00000E+000	9	...........	1467.52
	378	6.31667	1.21996E-001	-3.46442E-006	0.00000E+000	1.21995E-001	0.00000E+000	9	...........	1467.52
	379	6.33333	1.21000E-001	-3.49060E-006	0.00000E+000	1.20996E-001	0.00000E+000	9	...........	1467.52
[...]
	1005	16.7667	2.95020E-001	1.39281E-006	0.00000E+000	2.94998E-001	0.00000E+000	9	...........	1467.70
	1006	16.7833	2.93987E-001	1.29850E-006	0.00000E+000	2.93998E-001	0.00000E+000	9	...........	1467.70
	1007	16.8	2.92987E-001	1.22854E-006	0.00000E+000	2.92998E-001	0.00000E+000	9	...........	1467.70
	1008	16.8167	2.91984E-001	1.16138E-006	0.00000E+000	2.91999E-001	0.00000E+000	9	...........	1467.70
	1009	16.8333	2.90981E-001	1.10007E-006	0.00000E+000	2.90999E-001	0.00000E+000	9	...........	1467.70
	1010	16.85	2.89991E-001	1.02677E-006	0.00000E+000	2.89999E-001	0.00000E+000	9	...........	1467.70
	1011	16.8667	2.88999E-001	9.60345E-007	0.00000E+000	2.89000E-001	0.00000E+000	9	...........	1467.70
	1012	16.8833	2.88006E-001	9.06045E-007	0.00000E+000	2.88000E-001	0.00000E+000	9	...........	1467.70
	1013	16.9	2.86997E-001	8.57923E-007	0.00000E+000	2.87000E-001	0.00000E+000	9	...........	1467.70
	1014	16.9167	2.85994E-001	8.14776E-007	0.00000E+000	2.86001E-001	0.00000E+000	9	...........	1467.70
	1015	16.9333	2.84999E-001	7.67823E-007	0.00000E+000	2.85001E-001	0.00000E+000	9	...........	1467.70
	1016	16.95	2.84005E-001	7.09281E-007	0.00000E+000	2.84001E-001	0.00000E+000	9	...........	1467.70
	1017	16.9667	2.82995E-001	6.62629E-007	0.00000E+000	2.83002E-001	0.00000E+000	9	...........	1467.70
	1018	16.9833	2.81994E-001	6.09998E-007	0.00000E+000	2.82002E-001	0.00000E+000	9	...........	1467.70
	1019	17	2.80985E-001	5.84317E-007	0.00000E+000	2.81002E-001	0.00000E+000	9	...........	1467.70
	1020	17.0167	2.79981E-001	5.49887E-007	0.00000E+000	2.80003E-001	0.00000E+000	9	...........	1467.70
	1021	17.0333	2.78983E-001	5.08177E-007	0.00000E+000	2.79003E-001	0.00000E+000	9	...........	1467.70
	1022	17.05	2.77990E-001	4.56916E-007	0.00000E+000	2.78003E-001	0.00000E+000	9	...........	1467.70
	1023	17.0667	2.76995E-001	4.12500E-007	0.00000E+000	2.77004E-001	0.00000E+000	9	...........	1467.70
	1024	17.0833	2.76006E-001	3.75098E-007	0.00000E+000	2.76004E-001	0.00000E+000	9	...........	1467.70
	1025	17.1	2.74993E-001	3.44742E-007	0.00000E+000	2.75004E-001	0.00000E+000	9	...........	1467.70
	1026	17.1167	2.74002E-001	3.11881E-007	0.00000E+000	2.74005E-001	0.00000E+000	9	...........	1467.70
	1027	17.1333	2.73003E-001	2.82226E-007	0.00000E+000	2.73005E-001	0.00000E+000	9	...........	1467.70
	1028	17.15	2.72004E-001	2.40216E-007	0.00000E+000	2.72006E-001	0.00000E+000	9	...........	1467.70
	1029	17.1667	2.71013E-001	2.05084E-007	0.00000E+000	2.71006E-001	0.00000E+000	9	...........	1467.70
	1030	17.1833	2.70006E-001	1.54357E-007	0.00000E+000	2.69994E-001	0.00000E+000	9	...........	1467.70
	1031	17.2	2.69008E-001	1.41433E-007	0.00000E+000	2.68994E-001	0.00000E+000	9	...........	1467.57
	1032	17.2167	2.67970E-001	1.16220E-007	0.00000E+000	2.67994E-001	0.00000E+000	9	...........	1467.43
	1033	17.2333	2.66967E-001	9.12740E-008	0.00000E+000	2.66995E-001	0.00000E+000	9	...........	1467.43
	1034	17.25	2.65979E-001	5.41054E-008	0.00000E+000	2.65995E-001	0.00000E+000	9	...........	1467.43
	1035	17.2667	2.64975E-001	2.00759E-008	0.00000E+000	2.64995E-001	0.00000E+000	9	...........	1467.43
	1036	17.2833	2.63977E-001	-1.47550E-008	0.00000E+000	2.63996E-001	0.00000E+000	9	...........	1467.43
	1037	17.3	2.62982E-001	-3.40573E-008	0.00000E+000	2.62996E-001	0.00000E+000	9	...........	1467.43
	1038	17.3167	2.61983E-001	-6.05061E-008	0.00000E+000	2.61997E-001	0.00000E+000	9	...........	1467.43
	1039	17.3333	2.60987E-001	-8.48177E-008	0.00000E+000	2.60997E-001	0.00000E+000	9	...........	1467.43
	1040	17.35	2.59988E-001	-1.21652E-007	0.00000E+000	2.59997E-001	0.00000E+000	9	...........	1467.43
	1041	17.3667	2.58991E-001	-1.47968E-007	0.00000E+000	2.58998E-001	0.00000E+000	9	...........	1467.43
	1042	17.3833	2.57995E-001	-1.75986E-007	0.00000E+000	2.57998E-001	0.00000E+000	9	...........	1467.43
	1043	17.4	2.56999E-001	-1.94821E-007	0.00000E+000	2.56998E-001	0.00000E+000	9	...........	1467.43
	1044	17.4167	2.55988E-001	-2.18965E-007	0.00000E+000	2.55999E-001	0.00000E+000	9	...........	1467.43
	1045	17.4333	2.54982E-001	-2.42342E-007	0.00000E+000	2.54999E-001	0.00000E+000	9	...........	1467.43
	1046	17.45	2.53980E-001	-2.80011E-007	0.00000E+000	2.53999E-001	0.00000E+000	9	...........	1467.43
	1047	17.4667	2.52985E-001	-3.10367E-007	0.00000E+000	2.53000E-001	0.00000E+000	9	...........	1467.43
	1048	17.4833	2.51995E-001	-3.36115E-007	0.00000E+000	2.52000E-001	0.00000E+000	9	...........	1467.43
	1049	17.5	2.50995E-001	-3.51310E-007	0.00000E+000	2.51000E-001	0.00000E+000	9	...........	1467.43
	1050	17.5167	2.49991E-001	-3.73517E-007	0.00000E+000	2.50001E-001	0.00000E+000	9	...........	1467.43
	1051	17.5333	2.48987E-001	-3.93154E-007	0.00000E+000	2.49001E-001	0.00000E+000	9	...........	1467.43
	1052	17.55	2.47990E-001	-4.25881E-007	0.00000E+000	2.48001E-001	0.00000E+000	9	...........	1467.43
	1053	17.5667	2.46990E-001	-4.60077E-007	0.00000E+000	2.47002E-001	0.00000E+000	9	...........	1467.43
	1054	17.5833	2.45992E-001	-4.90099E-007	0.00000E+000	2.46002E-001	0.00000E+000	9	...........	1467.43
	1055	17.6	2.44998E-001	-5.04793E-007	0.00000E+000	2.45002E-001	0.00000E+000	9	...........	1467.43
	1056	17.6167	2.44005E-001	-5.17216E-007	0.00000E+000	2.44003E-001	0.00000E+000	9	...........	1467.43
	1057	17.6333	2.42994E-001	-5.42329E-007	0.00000E+000	2.43003E-001	0.00000E+000	9	...........	1467.43
	1058	17.65	2.41985E-001	-5.72919E-007	0.00000E+000	2.42004E-001	0.00000E+000	9	...........	1467.43
	1059	17.6667	2.40980E-001	-6.05078E-007	0.00000E+000	2.41004E-001	0.00000E+000	9	...........	1467.43
	1060	17.6833	2.39991E-001	-6.30993E-007	0.00000E+000	2.40004E-001	0.00000E+000	9	...........	1467.43
	1061	17.7	2.38997E-001	-6.48391E-007	0.00000E+000	2.39005E-001	0.00000E+000	9	...........	1467.43
	1062	17.7167	2.38003E-001	-6.66725E-007	0.00000E+000	2.38005E-001	0.00000E+000	9	...........	1467.43
	1063	17.7333	2.37003E-001	-6.80818E-007	0.00000E+000	2.37005E-001	0.00000E+000	9	...........	1467.43
	1064	17.75	2.35992E-001	-7.17185E-007	0.00000E+000	2.36006E-001	0.00000E+000	9	...........	1467.43
	1065	17.7667	2.35001E-001	-7.48877E-007	0.00000E+000	2.35006E-001	0.00000E+000	9	...........	1467.43
	1066	17.7833	2.33999E-001	-7.85444E-007	0.00000E+000	2.33994E-001	0.00000E+000	9	...........	1467.43
	1067	17.8	2.33003E-001	-7.92591E-007	0.00000E+000	2.32994E-001	0.00000E+000	9	...........	1467.43
	1068	17.8167	2.32003E-001	-8.08988E-007	0.00000E+000	2.31994E-001	0.00000E+000	9	...........	1467.43
	1069	17.8333	2.31004E-001	-8.24316E-007	0.00000E+000	2.30995E-001	0.00000E+000	9	...........	1467.43
	1070	17.85	2.29990E-001	-8.58813E-007	0.00000E+000	2.29995E-001	0.00000E+000	9	...........	1467.43
	1071	17.8667	2.28997E-001	-8.89269E-007	0.00000E+000	2.28996E-001	0.00000E+000	9	...........	1467.43
	1072	17.8833	2.27995E-001	-9.15317E-007	0.00000E+000	2.27996E-001	0.00000E+000	9	...........	1467.43
	1073	17.9	2.26986E-001	-9.29644E-007	0.00000E+000	2.26996E-001	0.00000E+000	9	...........	1467.43
	1074	17.9167	2.25991E-001	-9.47911E-007	0.00000E+000	2.25997E-001	0.00000E+000	9	...........	1467.43
	1075	17.9333	2.24993E-001	-9.64107E-007	0.00000E+000	2.24997E-001	0.00000E+000	9	...........	1467.43
	1076	17.95	2.24003E-001	-9.94430E-007	0.00000E+000	2.23997E-001	0.00000E+000	9	...........	1467.43
	1077	17.9667	2.22999E-001	-1.02592E-006	0.00000E+000	2.22998E-001	0.00000E+000	9	...........	1467.43
	1078	17.9833	2.21995E-001	-1.05314E-006	0.00000E+000	2.21998E-001	0.00000E+000	9	...........	1467.43
	1079	18	2.21000E-001	-1.06954E-006	0.00000E+000	2.20998E-001	0.00000E+000	9	...........	1467.43
	1080	18.0167	2.19993E-001	-1.08383E-006	0.00000E+000	2.19999E-001	0.00000E+000	9	...........	1467.43
	1081	18.0333	2.18990E-001	-1.10777E-006	0.00000E+000	2.18999E-001	0.00000E+000	9	...........	1467.43
	1082	18.05	2.18006E-001	-1.13602E-006	0.00000E+000	2.17999E-001	0.00000E+000	9	...........	1467.43
	1083	18.0667	2.16978E-001	-1.16414E-006	0.00000E+000	2.17000E-001	0.00000E+000	9	...........	1467.43
	1084	18.0833	2.15981E-001	-1.19043E-006	0.00000E+000	2.16000E-001	0.00000E+000	9	...........	1467.43
	1085	18.1	2.14986E-001	-1.20448E-006	0.00000E+000	2.15000E-001	0.00000E+000	9	...........	1467.43
	1086	18.1167	2.13978E-001	-1.22499E-006	0.00000E+000	2.14001E-001	0.00000E+000	9	...........	1467.43
	1087	18.1333	2.12987E-001	-1.24342E-006	0.00000E+000	2.13001E-001	0.00000E+000	9	...........	1467.43
	1088	18.15	2.12000E-001	-1.27448E-006	0.00000E+000	2.12001E-001	0.00000E+000	9	...........	1467.43
	1089	18.1667	2.10996E-001	-1.30110E-006	0.00000E+000	2.11002E-001	0.00000E+000	9	...........	1467.43
	1090	18.1833	2.10001E-001	-1.32704E-006	0.00000E+000	2.10002E-001	0.00000E+000	9	...........	1467.43
	1091	18.2	2.09008E-001	-1.34117E-006	0.00000E+000	2.09003E-001	0.00000E+000	9	...........	1467.48
	1092	18.2167	2.08008E-001	-1.35720E-006	0.00000E+000	2.08003E-001	0.00000E+000	9	...........	1467.52
	1093	18.2333	2.06998E-001	-1.37917E-006	0.00000E+000	2.07003E-001	0.00000E+000	9	...........	1467.52
	1094	18.25	2.06011E-001	-1.40773E-006	0.00000E+000	2.06004E-001	0.00000E+000	9	...........	1467.52
	1095	18.2667	2.05015E-001	-1.43751E-006	0.00000E+000	2.05004E-001	0.00000E+000	9	...........	1467.52
	1096	18.2833	2.03998E-001	-1.46153E-006	0.00000E+000	2.04004E-001	0.00000E+000	9	...........	1467.52
	1097	18.3	2.02999E-001	-1.47856E-006	0.00000E+000	2.03005E-001	0.00000E+000	9	...........	1467.52
	1098	18.3167	2.01998E-001	-1.49719E-006	0.00000E+000	2.02005E-001	0.00000E+000	9	...........	1467.52
	1099	18.3333	2.00996E-001	-1.52468E-006	0.00000E+000	2.01005E-001	0.00000E+000	9	...........	1467.52
	1100	18.35	2.00007E-001	-1.55092E-006	0.00000E+000	2.00006E-001	0.00000E+000	9	...........	1467.52
	1101	18.3667	1.99017E-001	-1.57988E-006	0.00000E+000	1.99006E-001	0.00000E+000	9	...........	1467.52
	1102	18.3833	1.97998E-001	-1.62092E-006	0.00000E+000	1.97994E-001	0.00000E+000	9	...........	1467.52
	1103	18.4	1.97000E-001	-1.62590E-006	0.00000E+000	1.96994E-001	0.00000E+000	9	...........	1467.52
	1104	18.4167	1.96002E-001	-1.64092E-006	0.00000E+000	1.95995E-001	0.00000E+000	9	...........	1467.52
	1105	18.4333	1.95003E-001	-1.65775E-006	0.00000E+000	1.94995E-001	0.00000E+000	9	...........	1467.52
	1106	18.45	1.94011E-001	-1.69092E-006	0.00000E+000	1.93995E-001	0.00000E+000	9	...........	1467.52
	1107	18.4667	1.93015E-001	-1.72024E-006	0.00000E+000	1.92996E-001	0.00000E+000	9	...........	1467.52
	1108	18.4833	1.92016E-001	-1.74936E-006	0.00000E+000	1.91996E-001	0.00000E+000	9	...........	1467.52
	1109	18.5	1.90985E-001	-1.76492E-006	0.00000E+000	1.90996E-001	0.00000E+000	9	...........	1467.52
	1110	18.5167	1.89988E-001	-1.78339E-006	0.00000E+000	1.89997E-001	0.00000E+000	9	...........	1467.52
	1111	18.5333	1.88985E-001	-1.80352E-006	0.00000E+000	1.88997E-001	0.00000E+000	9	...........	1467.52
	1112	18.55	1.87995E-001	-1.83668E-006	0.00000E+000	1.87997E-001	0.00000E+000	9	...........	1467.52
	1113	18.5667	1.86998E-001	-1.86210E-006	0.00000E+000	1.86998E-001	0.00000E+000	9	...........	1467.52
	1114	18.5833	1.85996E-001	-1.89139E-006	0.00000E+000	1.85998E-001	0.00000E+000	9	...........	1467.52
	1115	18.6	1.84986E-001	-1.90872E-006	0.00000E+000	1.84998E-001	0.00000E+000	9	...........	1467.52
	1116	18.6167	1.83988E-001	-1.93016E-006	0.00000E+000	1.83999E-001	0.00000E+000	9	...........	1467.52
	1117	18.6333	1.82994E-001	-1.94996E-006	0.00000E+000	1.82999E-001	0.00000E+000	9	...........	1467.52
	1118	18.65	1.82004E-001	-1.98923E-006	0.00000E+000	1.81999E-001	0.00000E+000	9	...........	1467.52
	1119	18.6667	1.81003E-001	-2.01852E-006	0.00000E+000	1.81000E-001	0.00000E+000	9	...........	1467.52
	1120	18.6833	1.79991E-001	-2.04390E-006	0.00000E+000	1.80000E-001	0.00000E+000	9	...........	1467.52
	1121	18.7	1.78976E-001	-2.05950E-006	0.00000E+000	1.79000E-001	0.00000E+000	9	...........	1467.52
	1122	18.7167	1.77979E-001	-2.08237E-006	0.00000E+000	1.78001E-001	0.00000E+000	9	...........	1467.52
	1123	18.7333	1.76983E-001	-2.10498E-006	0.00000E+000	1.77001E-001	0.00000E+000	9	...........	1467.52
	1124	18.75	1.75999E-001	-2.13908E-006	0.00000E+000	1.76002E-001	0.00000E+000	9	...........	1467.52
	1125	18.7667	1.74996E-001	-2.16903E-006	0.00000E+000	1.75002E-001	0.00000E+000	9	...........	1467.52
	1126	18.7833	1.74000E-001	-2.19762E-006	0.00000E+000	1.74002E-001	0.00000E+000	9	...........	1467.52
	1127	18.8	1.73007E-001	-2.21188E-006	0.00000E+000	1.73003E-001	0.00000E+000	9	...........	1467.52
	1128	18.8167	1.72004E-001	-2.23305E-006	0.00000E+000	1.72003E-001	0.00000E+000	9	...........	1467.52
	1129	18.8333	1.71006E-001	-2.25529E-006	0.00000E+000	1.71003E-001	0.00000E+000	9	...........	1467.52
	1130	18.85	1.70021E-001	-2.29032E-006	0.00000E+000	1.70004E-001	0.00000E+000	9	...........	1467.52
	1131	18.8667	1.69018E-001	-2.31233E-006	0.00000E+000	1.69004E-001	0.00000E+000	9	...........	1467.52
	1132	18.8833	1.68019E-001	-2.34442E-006	0.00000E+000	1.68004E-001	0.00000E+000	9	...........	1467.52
	1133	18.9	1.67018E-001	-2.35828E-006	0.00000E+000	1.67005E-001	0.00000E+000	9	...........	1467.52
	1134	18.9167	1.65990E-001	-2.38049E-006	0.00000E+000	1.66005E-001	0.00000E+000	9	...........	1467.52
	1135	18.9333	1.64993E-001	-2.40270E-006	0.00000E+000	1.65005E-001	0.00000E+000	9	...........	1467.52
	1136	18.95	1.64000E-001	-2.43529E-006	0.00000E+000	1.64006E-001	0.00000E+000	9	...........	1467.52
	1137	18.9667	1.62994E-001	-2.46701E-006	0.00000E+000	1.63006E-001	0.00000E+000	9	...........	1467.52
	1138	18.9833	1.61987E-001	-2.50499E-006	0.00000E+000	1.61994E-001	0.00000E+000	9	...........	1467.52
	1139	19	1.60989E-001	-2.51287E-006	0.00000E+000	1.60994E-001	0.00000E+000	9	...........	1467.52
	1140	19.0167	1.59991E-001	-2.53775E-006	0.00000E+000	1.59995E-001	0.00000E+000	9	...........	1467.52
	1141	19.0333	1.58986E-001	-2.55788E-006	0.00000E+000	1.58995E-001	0.00000E+000	9	...........	1467.52
	1142	19.05	1.57997E-001	-2.59311E-006	0.00000E+000	1.57995E-001	0.00000E+000	9	...........	1467.52
	1143	19.0667	1.56999E-001	-2.62287E-006	0.00000E+000	1.56996E-001	0.00000E+000	9	...........	1467.52
	1144	19.0833	1.55995E-001	-2.65536E-006	0.00000E+000	1.55996E-001	0.00000E+000	9	...........	1467.52
	1145	19.1	1.55001E-001	-2.66508E-006	0.00000E+000	1.54996E-001	0.00000E+000	9	...........	1467.52
	1146	19.1167	1.53984E-001	-2.68933E-006	0.00000E+000	1.53997E-001	0.00000E+000	9	...........	1467.52
	1147	19.1333	1.52979E-001	-2.71364E-006	0.00000E+000	1.52997E-001	0.00000E+000	9	...........	1467.52
	1148	19.15	1.51981E-001	-2.74533E-006	0.00000E+000	1.51997E-001	0.00000E+000	9	...........	1467.52
	1149	19.1667	1.50985E-001	-2.78383E-006	0.00000E+000	1.50998E-001	0.00000E+000	9	...........	1467.52
	1150	19.1833	1.49996E-001	-2.80841E-006	0.00000E+000	1.49998E-001	0.00000E+000	9	...........	1467.52
	1151	19.2	1.48993E-001	-2.82371E-006	0.00000E+000	1.48998E-001	0.00000E+000	9	...........	1467.52
	1152	19.2167	1.48005E-001	-2.84081E-006	0.00000E+000	1.47999E-001	0.00000E+000	9	...........	1467.52
	1153	19.2333	1.47005E-001	-2.86535E-006	0.00000E+000	1.46999E-001	0.00000E+000	9	...........	1467.52
	1154	19.25	1.45993E-001	-2.90249E-006	0.00000E+000	1.46000E-001	0.00000E+000	9	...........	1467.52
	1155	19.2667	1.44998E-001	-2.92934E-006	0.00000E+000	1.45000E-001	0.00000E+000	9	...........	1467.52
	1156	19.2833	1.44004E-001	-2.95675E-006	0.00000E+000	1.44000E-001	0.00000E+000	9	...........	1467.52
	1157	19.3	1.43011E-001	-2.97342E-006	0.00000E+000	1.43001E-001	0.00000E+000	9	...........	1467.52
	1158	19.3167	1.42013E-001	-2.99175E-006	0.00000E+000	1.42001E-001	0.00000E+000	9	...........	1467.52
	1159	19.3333	1.41015E-001	-3.01219E-006	0.00000E+000	1.41001E-001	0.00000E+000	9	...........	1467.52
	1160	19.35	1.39995E-001	-3.04411E-006	0.00000E+000	1.40002E-001	0.00000E+000	9	...........	1467.52
	1161	19.3667	1.39000E-001	-3.08299E-006	0.00000E+000	1.39002E-001	0.00000E+000	9	...........	1467.52
	1162	19.3833	1.38003E-001	-3.10326E-006	0.00000E+000	1.38002E-001	0.00000E+000	9	...........	1467.52
	1163	19.4	1.37002E-001	-3.12743E-006	0.00000E+000	1.37003E-001	0.00000E+000	9	...........	1467.52
	1164	19.4167	1.36012E-001	-3.14614E-006	0.00000E+000	1.36003E-001	0.00000E+000	9	...........	1467.52
	1165	19.4333	1.35010E-001	-3.16581E-006	0.00000E+000	1.35003E-001	0.00000E+000	9	...........	1467.52
	1166	19.45	1.34008E-001	-3.20197E-006	0.00000E+000	1.34004E-001	0.00000E+000	9	...........	1467.52
	1167	19.4667	1.33013E-001	-3.23316E-006	0.00000E+000	1.33004E-001	0.00000E+000	9	...........	1467.52
	1168	19.4833	1.32016E-001	-3.25991E-006	0.00000E+000	1.32004E-001	0.00000E+000	9	...........	1467.52
	1169	19.5	1.31021E-001	-3.28199E-006	0.00000E+000	1.31005E-001	0.00000E+000	9	...........	1467.52
	1170	19.5167	1.30015E-001	-3.30286E-006	0.00000E+000	1.30005E-001	0.00000E+000	9	...........	1467.52
	1171	19.5333	1.29017E-001	-3.32517E-006	0.00000E+000	1.29005E-001	0.00000E+000	9	...........	1467.52
	1172	19.55	1.28020E-001	-3.35889E-006	0.00000E+000	1.28006E-001	0.00000E+000	9	...........	1467.52
	1173	19.5667	1.27005E-001	-3.38945E-006	0.00000E+000	1.27006E-001	0.00000E+000	9	...........	1467.52
	1174	19.5833	1.25996E-001	-3.43069E-006	0.00000E+000	1.25994E-001	0.00000E+000	9	...........	1467.52
	1175	19.6	1.24999E-001	-3.44098E-006	0.00000E+000	1.24994E-001	0.00000E+000	9	...........	1467.52
	1176	19.6167	1.23999E-001	-3.45868E-006	0.00000E+000	1.23995E-001	0.00000E+000	9	...........	1467.52
	1177	19.6333	1.23001E-001	-3.47788E-006	0.00000E+000	1.22995E-001	0.00000E+000	9	...........	1467.52
	1178	19.65	1.22013E-001	-3.51458E-006	0.00000E+000	1.21995E-001	0.00000E+000	9	...........	1467.52
	1179	19.6667	1.21006E-001	-3.54564E-006	0.00000E+000	1.20996E-001	0.00000E+000	9	...........	1467.52
	1180	19.6833	1.20006E-001	-3.57529E-006	0.00000E+000	1.19996E-001	0.00000E+000	9	...........	1467.52
	1181	19.7	1.19010E-001	-3.59379E-006	0.00000E+000	1.18996E-001	0.00000E+000	9	...........	1467.52
	1182	19.7167	1.18004E-001	-3.61343E-006	0.00000E+000	1.17997E-001	0.00000E+000	9	...........	1467.52
	1183	19.7333	1.17009E-001	-3.63460E-006	0.00000E+000	1.16997E-001	0.00000E+000	9	...........	1467.52
	1184	19.75	1.16014E-001	-3.67368E-006	0.00000E+000	1.15997E-001	0.00000E+000	9	...........	1467.52
	1185	19.7667	1.15002E-001	-3.70233E-006	0.00000E+000	1.14998E-001	0.00000E+000	9	...........	1467.52
	1186	19.7833	1.13983E-001	-3.73108E-006	0.00000E+000	1.13998E-001	0.00000E+000	9	...........	1467.52
	1187	19.8	1.12988E-001	-3.74915E-006	0.00000E+000	1.12999E-001	0.00000E+000	9	...........	1467.52
	1188	19.8167	1.11992E-001	-3.76932E-006	0.00000E+000	1.11999E-001	0.00000E+000	9	...........	1467.52
	1189	19.8333	1.10994E-001	-3.78982E-006	0.00000E+000	1.10999E-001	0.00000E+000	9	...........	1467.52
	1190	19.85	1.10002E-001	-3.82432E-006	0.00000E+000	1.10000E-001	0.00000E+000	9	...........	1467.52
	1191	19.8667	1.09006E-001	-3.85842E-006	0.00000E+000	1.09000E-001	0.00000E+000	9	...........	1467.52
	1192	19.8833	1.08000E-001	-3.88864E-006	0.00000E+000	1.08000E-001	0.00000E+000	9	...........	1467.52
	1193	19.9	1.07000E-001	-3.90704E-006	0.00000E+000	1.07001E-001	0.00000E+000	9	...........	1467.52
	1194	19.9167	1.06000E-001	-3.93235E-006	0.00000E+000	1.06001E-001	0.00000E+000	9	...........	1467.52
	1195	19.9333	1.04993E-001	-3.95102E-006	0.00000E+000	1.05001E-001	0.00000E+000	9	...........	1467.52
	1196	19.95	1.04014E-001	-3.98946E-006	0.00000E+000	1.04002E-001	0.00000E+000	9	...........	1467.52
	1197	19.9667	1.03019E-001	-4.01865E-006	0.00000E+000	1.03002E-001	0.00000E+000	9	...........	1467.52
	1198	19.9833	1.01996E-001	-4.04583E-006	0.00000E+000	1.02002E-001	0.00000E+000	9	...........	1467.52
	1199	20	1.01002E-001	-4.06513E-006	0.00000E+000	1.01003E-001	0.00000E+000	9	...........	1467.52
	1200	20.0167	1.00004E-001	-4.08761E-006	0.00000E+000	1.00003E-001	0.00000E+000	9	...........	1467.52
CURVE4	TABLE
	Pt	T	Vf	Im	Vu	Sig	Ach	IERange	Over	Temp
	#	s	V vs. Ref.	A	V	V	V	#	bits	deg C
	1201	20.0333	9.99923E-002	-3.15829E-006	0.00000E+000	1.00003E-001	0.00000E+000	9	...........	1467.52