File: input/ECSA_test/CV_ECSA_#1_#8.DTA
EXPLAIN
TAG	CV
TITLE	LABEL	ECSA	Test Identifier
DATE	LABEL	2/13/2024	Date
TIME	LABEL	8:50:13	Time
NOTES	NOTES	1	Notes...

PSTAT	PSTAT	IFC1010-36068	Potentiostat
VINIT	POTEN	1.00000E-001	F	Initial E (V)
VLIMIT1	POTEN	3.00000E-001	F	Scan Limit 1 (V)
VLIMIT2	POTEN	1.00000E-001	F	Scan Limit 2 (V)
VFINAL	POTEN	1.00000E-001	F	Final E (V)
SCANRATE	QUANT	8.00115E+001	A Real Number
STEPSIZE	QUANT	1.00000E+000	Step Size (mV)
CYCLES	IQUANT	3	Cycles (#)
IMODE	SELECTOR	1	I/E Range Mode
IRANGE	QUANT	3.00000E-001	Max Current (mA)
AREA	QUANT	1.00000E+000	Sample Area (cm^2)
EQDELAY	QUANT	0.00000E+000	Equil. Time (s)
IRCOMP	SELECTOR	0	IRComp
PFCOR	QUANT	5.00000E+001	PF Corr. (ohm)
SAMPLINGMODE	SELECTOR	2	Sampling Mode
EOC	QUANT	0.3246219	Open Circuit (V)
ELECTRODETYPE	SELECTOR	0	Electrode Type
STRIPPING	TOGGLE	F	Used for Stripping
SEQUENCER	TOGGLE	TRUE	Run as Sequence
PSTATMODEL	IQUANT	64	Pstat Model
PSTATSECTION	LABEL	IFC1010-36068	Pstat Section
PSTATSERIALNO	LABEL	36068	Pstat Serial Number
CTRLMODE	IQUANT	1	Control Mode
ELECTROMETER	IQUANT	0	RE=0 or CS=1
IESTAB	IQUANT	2	I/E Stability
CASPEED	IQUANT	4	Control Amp Speed
CONVENTION	IQUANT	1	Current Convention
ICHRANGE	IQUANT	2	Ich Range
ICHRANGEMODE	TOGGLE	F	Ich Auto Range
ICHOFFSETENABLE	TOGGLE	F	Ich Offset Enable
ICHOFFSET	QUANT	0	Ich Offset (V)
ICHFILTER	IQUANT	3	Ich Filter
VCHRANGE	IQUANT	2	Vch Range
VCHRANGEMODE	TOGGLE	F	Vch Auto Range
VCHOFFSETENABLE	TOGGLE	F	Vch Offset Enable
VCHOFFSET	QUANT	0	Vch Offset (V)
VCHFILTER	IQUANT	3	Vch Filter
IERANGELOWERLIMIT	IQUANT	4	I/E Range Lower Limit
IERANGEMODE	TOGGLE	F	I/E AutoRange
IERANGE	IQUANT	9	I/E Range
ACHSELECT	IQUANT	0	Ach Select
ACHRANGE	IQUANT	2	Ach Range
ACHOFFSETENABLE	TOGGLE	F	Ach Offset Enable
ACHOFFSET	QUANT	0	Ach Offset (V)
ACHFILTER	IQUANT	1	Ach Filter
SENSECABLEID	IQUANT	13	Sense Cable ID
PWRCABLEID	IQUANT	13	Power Cable ID
DCCALDATE	LABEL	8/11/2023	DC Calibration Date
ACCALDATE	LABEL	6/2/2023	AC Calibration Date
FRAMEWORKVERSION	LABEL	7.10.3	Framework Version
INSTRUMENTVERSION	LABEL	4.91	Instrument Version
COMMVERSION	LABEL	3.10	Communications Version
CPUPLDVERSION	LABEL	2.22	CPU PLD Version
CTRLPLDVERSION	LABEL	0.00	CTRL PLD Version
PSTATPLDVERSION	LABEL	0.00	PSTAT PLD Version
CURVE1	TABLE
	Pt	T	Vf	Im	Vu	Sig	Ach	IERange	Over	Temp
	#	s	V vs. Ref.	A	V	V	V	#	bits	deg C
	0	0.0125	9.99978E-002	-1.04137E-005	0.00000E+000	1.00003E-001	0.00000E+000	9	...........	1467.52
	1	0.025	1.00971E-001	-9.06074E-006	0.00000E+000	1.01003E-001	0.00000E+000	9	...........	1467.52
	2	0.0375	1.01964E-001	-8.77687E-006	0.00000E+000	1.02002E-001	0.00000E+000	9	...........	1467.52
	3	0.05	1.02973E-001	-8.56723E-006	0.00000E+000	1.03002E-001	0.00000E+000	9	...........	1467.52
	4	0.0625	1.03977E-001	-8.33763E-006	0.00000E+000	1.04002E-001	0.00000E+000	9	...........	1467.52
	5	0.075	1.04965E-001	-8.18454E-006	0.00000E+000	1.05001E-001	0.00000E+000	9	...........	1467.52
	6	0.0875	1.05965E-001	-7.99437E-006	0.00000E+000	1.06001E-001	0.00000E+000	9	...........	1467.52
	7	0.1	1.06965E-001	-7.82978E-006	0.00000E+000	1.07001E-001	0.00000E+000	9	...........	1467.52
	8	0.1125	1.07963E-001	-7.70106E-006	0.00000E+000	1.08000E-001	0.00000E+000	9	...........	1467.52
	9	0.125	1.08966E-001	-7.52889E-006	0.00000E+000	1.09000E-001	0.00000E+000	9	...........	1467.52
	10	0.1375	1.09966E-001	-7.38725E-006	0.00000E+000	1.10000E-001	0.00000E+000	9	...........	1467.52
	11	0.15	1.10961E-001	-7.25763E-006	0.00000E+000	1.10999E-001	0.00000E+000	9	...........	1467.52
	12	0.1625	1.11957E-001	-7.08703E-006	0.00000E+000	1.11999E-001	0.00000E+000	9	...........	1467.52
	13	0.175	1.12959E-001	-6.97448E-006	0.00000E+000	1.12999E-001	0.00000E+000	9	...........	1467.52
	14	0.1875	1.13952E-001	-6.83305E-006	0.00000E+000	1.13998E-001	0.00000E+000	9	...........	1467.52
	15	0.2	1.14968E-001	-6.68383E-006	0.00000E+000	1.14998E-001	0.00000E+000	9	...........	1467.52
	16	0.2125	1.15974E-001	-6.58229E-006	0.00000E+000	1.15997E-001	0.00000E+000	9	...........	1467.52
	17	0.225	1.16972E-001	-6.42928E-006	0.00000E+000	1.16997E-001	0.00000E+000	9	...........	1467.52
	18	0.2375	1.17966E-001	-6.31807E-006	0.00000E+000	1.17997E-001	0.00000E+000	9	...........	1467.52
	19	0.25	1.18987E-001	-6.18770E-006	0.00000E+000	1.19009E-001	0.00000E+000	9	...........	1467.52
	20	0.2625	1.19985E-001	-6.05265E-006	0.00000E+000	1.20009E-001	0.00000E+000	9	...........	1467.52
	21	0.275	1.20982E-001	-5.96220E-006	0.00000E+000	1.21008E-001	0.00000E+000	9	...........	1467.52
	22	0.2875	1.21992E-001	-5.83784E-006	0.00000E+000	1.22008E-001	0.00000E+000	9	...........	1467.52
	23	0.3	1.22975E-001	-5.70952E-006	0.00000E+000	1.23008E-001	0.00000E+000	9	...........	1467.52
	24	0.3125	1.23972E-001	-5.62789E-006	0.00000E+000	1.24007E-001	0.00000E+000	9	...........	1467.52
	25	0.325	1.24980E-001	-5.48611E-006	0.00000E+000	1.25007E-001	0.00000E+000	9	...........	1467.52
	26	0.3375	1.25968E-001	-5.38978E-006	0.00000E+000	1.26006E-001	0.00000E+000	9	...........	1467.52
	27	0.35	1.26968E-001	-5.30107E-006	0.00000E+000	1.27006E-001	0.00000E+000	9	...........	1467.52
	28	0.3625	1.27980E-001	-5.16598E-006	0.00000E+000	1.28006E-001	0.00000E+000	9	...........	1467.52
	29	0.375	1.28982E-001	-5.08288E-006	0.00000E+000	1.29005E-001	0.00000E+000	9	...........	1467.52
	30	0.3875	1.29981E-001	-4.98107E-006	0.00000E+000	1.30005E-001	0.00000E+000	9	...........	1467.52
	31	0.4	1.30984E-001	-4.86246E-006	0.00000E+000	1.31005E-001	0.00000E+000	9	...........	1467.52
	32	0.4125	1.31992E-001	-4.78841E-006	0.00000E+000	1.32004E-001	0.00000E+000	9	...........	1467.52
	33	0.425	1.32983E-001	-4.67358E-006	0.00000E+000	1.33004E-001	0.00000E+000	9	...........	1467.52
	34	0.4375	1.33972E-001	-4.57837E-006	0.00000E+000	1.34004E-001	0.00000E+000	9	...........	1467.52
	35	0.45	1.34980E-001	-4.49946E-006	0.00000E+000	1.35003E-001	0.00000E+000	9	...........	1467.52
	36	0.4625	1.35976E-001	-4.37719E-006	0.00000E+000	1.36003E-001	0.00000E+000	9	...........	1467.52
	37	0.475	1.36973E-001	-4.30666E-006	0.00000E+000	1.37003E-001	0.00000E+000	9	...........	1467.52
	38	0.4875	1.37978E-001	-4.21670E-006	0.00000E+000	1.38002E-001	0.00000E+000	9	...........	1467.52
	39	0.5	1.38979E-001	-4.10028E-006	0.00000E+000	1.39002E-001	0.00000E+000	9	...........	1467.52
	40	0.5125	1.39974E-001	-4.04636E-006	0.00000E+000	1.40002E-001	0.00000E+000	9	...........	1467.52
	41	0.525	1.40996E-001	-3.93791E-006	0.00000E+000	1.41001E-001	0.00000E+000	9	...........	1467.52
	42	0.5375	1.41991E-001	-3.85691E-006	0.00000E+000	1.42001E-001	0.00000E+000	9	...........	1467.52
	43	0.55	1.42990E-001	-3.78361E-006	0.00000E+000	1.43001E-001	0.00000E+000	9	...........	1467.52
	44	0.5625	1.43974E-001	-3.67868E-006	0.00000E+000	1.44000E-001	0.00000E+000	9	...........	1467.52
	45	0.575	1.44985E-001	-3.59643E-006	0.00000E+000	1.45012E-001	0.00000E+000	9	...........	1467.52
	46	0.5875	1.45983E-001	-3.52880E-006	0.00000E+000	1.46012E-001	0.00000E+000	9	...........	1467.52
	47	0.6	1.46990E-001	-3.43287E-006	0.00000E+000	1.47012E-001	0.00000E+000	9	...........	1467.52
	48	0.6125	1.47983E-001	-3.38840E-006	0.00000E+000	1.48011E-001	0.00000E+000	9	...........	1467.52
	49	0.625	1.48976E-001	-3.28832E-006	0.00000E+000	1.49011E-001	0.00000E+000	9	...........	1467.52
	50	0.6375	1.49970E-001	-3.20910E-006	0.00000E+000	1.50011E-001	0.00000E+000	9	...........	1467.52
	51	0.65	1.50967E-001	-3.14993E-006	0.00000E+000	1.51010E-001	0.00000E+000	9	...........	1467.52
	52	0.6625	1.51968E-001	-3.04531E-006	0.00000E+000	1.52010E-001	0.00000E+000	9	...........	1467.52
	53	0.675	1.52959E-001	-2.98329E-006	0.00000E+000	1.53010E-001	0.00000E+000	9	...........	1467.52
	54	0.6875	1.53969E-001	-2.91842E-006	0.00000E+000	1.54009E-001	0.00000E+000	9	...........	1467.52
	55	0.7	1.54982E-001	-2.81286E-006	0.00000E+000	1.55009E-001	0.00000E+000	9	...........	1467.52
	56	0.7125	1.55977E-001	-2.77561E-006	0.00000E+000	1.56009E-001	0.00000E+000	9	...........	1467.52
	57	0.725	1.56980E-001	-2.68753E-006	0.00000E+000	1.57008E-001	0.00000E+000	9	...........	1467.52
	58	0.7375	1.57977E-001	-2.61298E-006	0.00000E+000	1.58008E-001	0.00000E+000	9	...........	1467.52
	59	0.75	1.58963E-001	-2.56255E-006	0.00000E+000	1.59007E-001	0.00000E+000	9	...........	1467.52
	60	0.7625	1.59967E-001	-2.46127E-006	0.00000E+000	1.60007E-001	0.00000E+000	9	...........	1467.52
	61	0.775	1.60962E-001	-2.42228E-006	0.00000E+000	1.61007E-001	0.00000E+000	9	...........	1467.52
	62	0.7875	1.61964E-001	-2.34827E-006	0.00000E+000	1.62006E-001	0.00000E+000	9	...........	1467.52
	63	0.8	1.62963E-001	-2.26166E-006	0.00000E+000	1.63006E-001	0.00000E+000	9	...........	1467.52
	64	0.8125	1.63973E-001	-2.22530E-006	0.00000E+000	1.64006E-001	0.00000E+000	9	...........	1467.52
	65	0.825	1.64961E-001	-2.13712E-006	0.00000E+000	1.65005E-001	0.00000E+000	9	...........	1467.52
	66	0.8375	1.65951E-001	-2.06106E-006	0.00000E+000	1.66005E-001	0.00000E+000	9	...........	1467.52
	67	0.85	1.66983E-001	-2.02404E-006	0.00000E+000	1.67005E-001	0.00000E+000	9	...........	1467.52
	68	0.8625	1.67984E-001	-1.92766E-006	0.00000E+000	1.68004E-001	0.00000E+000	9	...........	1467.52
	69	0.875	1.68980E-001	-1.87691E-006	0.00000E+000	1.69004E-001	0.00000E+000	9	...........	1467.52
	70	0.8875	1.69997E-001	-1.80620E-006	0.00000E+000	1.70016E-001	0.00000E+000	9	...........	1467.52
	71	0.9	1.70989E-001	-1.72667E-006	0.00000E+000	1.71016E-001	0.00000E+000	9	...........	1467.52
	72	0.9125	1.71990E-001	-1.70778E-006	0.00000E+000	1.72015E-001	0.00000E+000	9	...........	1467.52
	73	0.925	1.72996E-001	-1.62254E-006	0.00000E+000	1.73015E-001	0.00000E+000	9	...........	1467.52
	74	0.9375	1.73992E-001	-1.55927E-006	0.00000E+000	1.74015E-001	0.00000E+000	9	...........	1467.52
	75	0.95	1.74989E-001	-1.51850E-006	0.00000E+000	1.75014E-001	0.00000E+000	9	...........	1467.52
	76	0.9625	1.75997E-001	-1.42253E-006	0.00000E+000	1.76014E-001	0.00000E+000	9	...........	1467.52
	77	0.975	1.76983E-001	-1.38639E-006	0.00000E+000	1.77014E-001	0.00000E+000	9	...........	1467.52
	78	0.9875	1.77984E-001	-1.32660E-006	0.00000E+000	1.78013E-001	0.00000E+000	9	...........	1467.52
	79	1	1.78981E-001	-1.24426E-006	0.00000E+000	1.79013E-001	0.00000E+000	9	...........	1467.52
	80	1.0125	1.79993E-001	-1.22118E-006	0.00000E+000	1.80013E-001	0.00000E+000	9	...........	1467.52
	81	1.025	1.81000E-001	-1.14623E-006	0.00000E+000	1.81012E-001	0.00000E+000	9	...........	1467.52
	82	1.0375	1.82009E-001	-1.07810E-006	0.00000E+000	1.82012E-001	0.00000E+000	9	...........	1467.52
	83	1.05	1.83004E-001	-1.04019E-006	0.00000E+000	1.83012E-001	0.00000E+000	9	...........	1467.52
	84	1.0625	1.84005E-001	-9.49336E-007	0.00000E+000	1.84011E-001	0.00000E+000	9	...........	1467.52
	85	1.075	1.84996E-001	-9.13691E-007	0.00000E+000	1.85011E-001	0.00000E+000	9	...........	1467.52
	86	1.0875	1.85999E-001	-8.65125E-007	0.00000E+000	1.86011E-001	0.00000E+000	9	...........	1467.52
	87	1.1	1.86997E-001	-7.87062E-007	0.00000E+000	1.87010E-001	0.00000E+000	9	...........	1467.52
	88	1.1125	1.87997E-001	-7.60373E-007	0.00000E+000	1.88010E-001	0.00000E+000	9	...........	1467.52
	89	1.125	1.88986E-001	-6.90553E-007	0.00000E+000	1.89010E-001	0.00000E+000	9	...........	1467.52
	90	1.1375	1.89977E-001	-6.23496E-007	0.00000E+000	1.90009E-001	0.00000E+000	9	...........	1467.52
	91	1.15	1.90980E-001	-5.95336E-007	0.00000E+000	1.91009E-001	0.00000E+000	9	...........	1467.52
	92	1.1625	1.92008E-001	-5.18209E-007	0.00000E+000	1.92008E-001	0.00000E+000	9	...........	1467.52
	93	1.175	1.93002E-001	-4.81494E-007	0.00000E+000	1.93008E-001	0.00000E+000	9	...........	1467.52
	94	1.1875	1.93998E-001	-4.33730E-007	0.00000E+000	1.94008E-001	0.00000E+000	9	...........	1467.52
	95	1.2	1.95006E-001	-3.45464E-007	0.00000E+000	1.95020E-001	0.00000E+000	9	...........	1467.52
	96	1.2125	1.96004E-001	-3.29602E-007	0.00000E+000	1.96020E-001	0.00000E+000	9	...........	1467.52
	97	1.225	1.97000E-001	-2.63836E-007	0.00000E+000	1.97019E-001	0.00000E+000	9	...........	1467.52
	98	1.2375	1.97998E-001	-2.01591E-007	0.00000E+000	1.98019E-001	0.00000E+000	9	...........	1467.52
	99	1.25	1.99004E-001	-1.79402E-007	0.00000E+000	1.99019E-001	0.00000E+000	9	...........	1467.52
	100	1.2625	2.00000E-001	-1.05349E-007	0.00000E+000	2.00018E-001	0.00000E+000	9	...........	1467.52
	101	1.275	2.00989E-001	-6.50702E-008	0.00000E+000	2.01018E-001	0.00000E+000	9	...........	1467.52
	102	1.2875	2.01988E-001	-2.27416E-008	0.00000E+000	2.02017E-001	0.00000E+000	9	...........	1467.52
	103	1.3	2.02983E-001	5.35835E-008	0.00000E+000	2.03017E-001	0.00000E+000	9	...........	1467.52
	104	1.3125	2.03984E-001	7.43913E-008	0.00000E+000	2.04017E-001	0.00000E+000	9	...........	1467.52
	105	1.325	2.04993E-001	1.29240E-007	0.00000E+000	2.05016E-001	0.00000E+000	9	...........	1467.52
	106	1.3375	2.05986E-001	1.86763E-007	0.00000E+000	2.06016E-001	0.00000E+000	9	...........	1467.52
	107	1.35	2.06972E-001	2.10689E-007	0.00000E+000	2.07016E-001	0.00000E+000	9	...........	1467.52
	108	1.3625	2.07980E-001	2.83717E-007	0.00000E+000	2.08015E-001	0.00000E+000	9	...........	1467.52
	109	1.375	2.08976E-001	3.20432E-007	0.00000E+000	2.09015E-001	0.00000E+000	9	...........	1467.52
	110	1.3875	2.09972E-001	3.59107E-007	0.00000E+000	2.10015E-001	0.00000E+000	9	...........	1467.52
	111	1.4	2.10963E-001	4.29372E-007	0.00000E+000	2.11014E-001	0.00000E+000	9	...........	1467.52
	112	1.4125	2.11973E-001	4.52631E-007	0.00000E+000	2.12014E-001	0.00000E+000	9	...........	1467.52
	113	1.425	2.12959E-001	5.06455E-007	0.00000E+000	2.13014E-001	0.00000E+000	9	...........	1467.52
	114	1.4375	2.13954E-001	5.63041E-007	0.00000E+000	2.14013E-001	0.00000E+000	9	...........	1467.52
	115	1.45	2.14960E-001	5.78592E-007	0.00000E+000	2.15013E-001	0.00000E+000	9	...........	1467.52
	116	1.4625	2.15956E-001	6.50639E-007	0.00000E+000	2.16013E-001	0.00000E+000	9	...........	1467.52
	117	1.475	2.16951E-001	6.86775E-007	0.00000E+000	2.17012E-001	0.00000E+000	9	...........	1467.52
	118	1.4875	2.17982E-001	7.14310E-007	0.00000E+000	2.18012E-001	0.00000E+000	9	...........	1467.52
	119	1.5	2.18967E-001	7.95849E-007	0.00000E+000	2.19012E-001	0.00000E+000	9	...........	1467.52
	120	1.5125	2.19970E-001	8.07701E-007	0.00000E+000	2.20011E-001	0.00000E+000	9	...........	1467.52
	121	1.525	2.20987E-001	8.71594E-007	0.00000E+000	2.21023E-001	0.00000E+000	9	...........	1467.52
	122	1.5375	2.21983E-001	9.20740E-007	0.00000E+000	2.22023E-001	0.00000E+000	9	...........	1467.52
	123	1.55	2.22983E-001	9.30453E-007	0.00000E+000	2.23023E-001	0.00000E+000	9	...........	1467.52
	124	1.5625	2.23986E-001	9.96709E-007	0.00000E+000	2.24022E-001	0.00000E+000	9	...........	1467.52
	125	1.575	2.24980E-001	1.03106E-006	0.00000E+000	2.25022E-001	0.00000E+000	9	...........	1467.52
	126	1.5875	2.25978E-001	1.05788E-006	0.00000E+000	2.26022E-001	0.00000E+000	9	...........	1467.52
	127	1.6	2.26980E-001	1.13706E-006	0.00000E+000	2.27021E-001	0.00000E+000	9	...........	1467.52
	128	1.6125	2.27982E-001	1.14856E-006	0.00000E+000	2.28021E-001	0.00000E+000	9	...........	1467.52
	129	1.625	2.28984E-001	1.19178E-006	0.00000E+000	2.29021E-001	0.00000E+000	9	...........	1467.52
	130	1.6375	2.29978E-001	1.23985E-006	0.00000E+000	2.30020E-001	0.00000E+000	9	...........	1467.52
	131	1.65	2.30990E-001	1.25282E-006	0.00000E+000	2.31020E-001	0.00000E+000	9	...........	1467.52
	132	1.6625	2.31999E-001	1.30816E-006	0.00000E+000	2.32019E-001	0.00000E+000	9	...........	1467.52
	133	1.675	2.32994E-001	1.34826E-006	0.00000E+000	2.33019E-001	0.00000E+000	9	...........	1467.52
	134	1.6875	2.33996E-001	1.36425E-006	0.00000E+000	2.34019E-001	0.00000E+000	9	...........	1467.52
	135	1.7	2.34985E-001	1.43706E-006	0.00000E+000	2.35018E-001	0.00000E+000	9	...........	1467.52
	136	1.7125	2.35977E-001	1.44994E-006	0.00000E+000	2.36018E-001	0.00000E+000	9	...........	1467.52
	137	1.725	2.36982E-001	1.49494E-006	0.00000E+000	2.37018E-001	0.00000E+000	9	...........	1467.52
	138	1.7375	2.37978E-001	1.54257E-006	0.00000E+000	2.38017E-001	0.00000E+000	9	...........	1467.52
	139	1.75	2.38971E-001	1.55148E-006	0.00000E+000	2.39017E-001	0.00000E+000	9	...........	1467.52
	140	1.7625	2.39986E-001	1.61105E-006	0.00000E+000	2.40017E-001	0.00000E+000	9	...........	1467.52
	141	1.775	2.40972E-001	1.65022E-006	0.00000E+000	2.41016E-001	0.00000E+000	9	...........	1467.52
	142	1.7875	2.41975E-001	1.66452E-006	0.00000E+000	2.42016E-001	0.00000E+000	9	...........	1467.52
	143	1.8	2.42991E-001	1.73193E-006	0.00000E+000	2.43016E-001	0.00000E+000	9	...........	1467.52
	144	1.8125	2.43994E-001	1.74232E-006	0.00000E+000	2.44015E-001	0.00000E+000	9	...........	1467.52
	145	1.825	2.44992E-001	1.77743E-006	0.00000E+000	2.45015E-001	0.00000E+000	9	...........	1467.52
	146	1.8375	2.45988E-001	1.85264E-006	0.00000E+000	2.46027E-001	0.00000E+000	9	...........	1467.52
	147	1.85	2.46995E-001	1.84520E-006	0.00000E+000	2.47027E-001	0.00000E+000	9	...........	1467.52
	148	1.8625	2.47994E-001	1.89951E-006	0.00000E+000	2.48026E-001	0.00000E+000	9	...........	1467.52
	149	1.875	2.48989E-001	1.93689E-006	0.00000E+000	2.49026E-001	0.00000E+000	9	...........	1467.52
	150	1.8875	2.49998E-001	1.94362E-006	0.00000E+000	2.50026E-001	0.00000E+000	9	...........	1467.52
	151	1.9	2.50995E-001	2.00003E-006	0.00000E+000	2.51025E-001	0.00000E+000	9	...........	1467.52
	152	1.9125	2.51980E-001	2.01616E-006	0.00000E+000	2.52025E-001	0.00000E+000	9	...........	1467.52
	153	1.925	2.52979E-001	2.04980E-006	0.00000E+000	2.53025E-001	0.00000E+000	9	...........	1467.52
	154	1.9375	2.53972E-001	2.10746E-006	0.00000E+000	2.54024E-001	0.00000E+000	9	...........	1467.52
	155	1.95	2.54971E-001	2.11231E-006	0.00000E+000	2.55024E-001	0.00000E+000	9	...........	1467.52
	156	1.9625	2.55983E-001	2.16507E-006	0.00000E+000	2.56024E-001	0.00000E+000	9	...........	1467.52
	157	1.975	2.56988E-001	2.20477E-006	0.00000E+000	2.57023E-001	0.00000E+000	9	...........	1467.52
	158	1.9875	2.57990E-001	2.21666E-006	0.00000E+000	2.58023E-001	0.00000E+000	9	...........	1467.52
	159	2	2.58988E-001	2.27797E-006	0.00000E+000	2.59023E-001	0.00000E+000	9	...........	1467.52
	160	2.0125	2.59983E-001	2.29441E-006	0.00000E+000	2.60022E-001	0.00000E+000	9	...........	1467.52
	161	2.025	2.60981E-001	2.32649E-006	0.00000E+000	2.61022E-001	0.00000E+000	9	...........	1467.52
	162	2.0375	2.61974E-001	2.37787E-006	0.00000E+000	2.62022E-001	0.00000E+000	9	...........	1467.52
	163	2.05	2.62976E-001	2.38054E-006	0.00000E+000	2.63021E-001	0.00000E+000	9	...........	1467.52
	164	2.0625	2.63973E-001	2.43187E-006	0.00000E+000	2.64021E-001	0.00000E+000	9	...........	1467.52
	165	2.075	2.64975E-001	2.47135E-006	0.00000E+000	2.65020E-001	0.00000E+000	9	...........	1467.52
	166	2.0875	2.65977E-001	2.47678E-006	0.00000E+000	2.66020E-001	0.00000E+000	9	...........	1467.52
	167	2.1	2.66957E-001	2.54268E-006	0.00000E+000	2.67020E-001	0.00000E+000	9	...........	1467.52
	168	2.1125	2.67952E-001	2.55609E-006	0.00000E+000	2.68019E-001	0.00000E+000	9	...........	1467.52
	169	2.125	2.68987E-001	2.58118E-006	0.00000E+000	2.69019E-001	0.00000E+000	9	...........	1467.52
	170	2.1375	2.69983E-001	2.63986E-006	0.00000E+000	2.70019E-001	0.00000E+000	9	...........	1467.52
	171	2.15	2.70991E-001	2.65657E-006	0.00000E+000	2.71031E-001	0.00000E+000	9	...........	1467.52
	172	2.1625	2.71987E-001	2.69368E-006	0.00000E+000	2.72031E-001	0.00000E+000	9	...........	1467.52
	173	2.175	2.72986E-001	2.73378E-006	0.00000E+000	2.73030E-001	0.00000E+000	9	...........	1467.52
	174	2.1875	2.73986E-001	2.73837E-006	0.00000E+000	2.74030E-001	0.00000E+000	9	...........	1467.52
	175	2.2	2.74987E-001	2.80062E-006	0.00000E+000	2.75029E-001	0.00000E+000	9	...........	1467.52
	176	2.2125	2.75995E-001	2.81483E-006	0.00000E+000	2.76029E-001	0.00000E+000	9	...........	1467.52
	177	2.225	2.76991E-001	2.83863E-006	0.00000E+000	2.77029E-001	0.00000E+000	9	...........	1467.52
	178	2.2375	2.77986E-001	2.89686E-006	0.00000E+000	2.78028E-001	0.00000E+000	9	...........	1467.52
	179	2.25	2.78985E-001	2.90279E-006	0.00000E+000	2.79028E-001	0.00000E+000	9	...........	1467.52
	180	2.2625	2.79981E-001	2.95505E-006	0.00000E+000	2.80028E-001	0.00000E+000	9	...........	1467.52
	181	2.275	2.80978E-001	2.99150E-006	0.00000E+000	2.81027E-001	0.00000E+000	9	...........	1467.52
	182	2.2875	2.81985E-001	2.99867E-006	0.00000E+000	2.82027E-001	0.00000E+000	9	...........	1467.52
	183	2.3	2.82995E-001	3.05700E-006	0.00000E+000	2.83027E-001	0.00000E+000	9	...........	1467.52
	184	2.3125	2.83999E-001	3.07014E-006	0.00000E+000	2.84026E-001	0.00000E+000	9	...........	1467.52
	185	2.325	2.84993E-001	3.09384E-006	0.00000E+000	2.85026E-001	0.00000E+000	9	...........	1467.52
	186	2.3375	2.85991E-001	3.15694E-006	0.00000E+000	2.86026E-001	0.00000E+000	9	...........	1467.52
	187	2.35	2.86990E-001	3.15551E-006	0.00000E+000	2.87025E-001	0.00000E+000	9	...........	1467.52
	188	2.3625	2.87994E-001	3.20631E-006	0.00000E+000	2.88025E-001	0.00000E+000	9	...........	1467.52
	189	2.375	2.88996E-001	3.24369E-006	0.00000E+000	2.89025E-001	0.00000E+000	9	...........	1467.52
	190	2.3875	2.89985E-001	3.25581E-006	0.00000E+000	2.90024E-001	0.00000E+000	9	...........	1467.52
	191	2.4	2.90972E-001	3.31743E-006	0.00000E+000	2.91024E-001	0.00000E+000	9	...........	1467.52
	192	2.4125	2.91980E-001	3.33329E-006	0.00000E+000	2.92024E-001	0.00000E+000	9	...........	1467.52
	193	2.425	2.92983E-001	3.35820E-006	0.00000E+000	2.93023E-001	0.00000E+000	9	...........	1467.52
	194	2.4375	2.93976E-001	3.41768E-006	0.00000E+000	2.94023E-001	0.00000E+000	9	...........	1467.52
	195	2.45	2.95006E-001	3.41799E-006	0.00000E+000	2.95022E-001	0.00000E+000	9	...........	1467.52
	196	2.4625	2.96000E-001	3.46625E-006	0.00000E+000	2.96022E-001	0.00000E+000	9	...........	1467.52
	197	2.475	2.97001E-001	3.52279E-006	0.00000E+000	2.97034E-001	0.00000E+000	9	...........	1467.52
	198	2.4875	2.98002E-001	3.51980E-006	0.00000E+000	2.98034E-001	0.00000E+000	9	...........	1467.52
	199	2.5	2.99003E-001	3.58254E-006	0.00000E+000	2.99034E-001	0.00000E+000	9	...........	1467.52
	200	2.5125	3.00004E-001	3.60237E-006	0.00000E+000	3.00033E-001	0.00000E+000	9	...........	1467.52
	201	2.525	2.99042E-001	1.39959E-006	0.00000E+000	2.99034E-001	0.00000E+000	9	...........	1467.52
	202	2.5375	2.98040E-001	1.16892E-006	0.00000E+000	2.98034E-001	0.00000E+000	9	...........	1467.52
	203	2.55	2.97035E-001	9.63648E-007	0.00000E+000	2.97034E-001	0.00000E+000	9	...........	1467.52
	204	2.5625	2.96034E-001	8.18840E-007	0.00000E+000	2.96022E-001	0.00000E+000	9	...........	1467.52
	205	2.575	2.95042E-001	7.17741E-007	0.00000E+000	2.95022E-001	0.00000E+000	9	...........	1467.52
	206	2.5875	2.94007E-001	5.78413E-007	0.00000E+000	2.94023E-001	0.00000E+000	9	...........	1467.52
	207	2.6	2.93015E-001	5.03692E-007	0.00000E+000	2.93023E-001	0.00000E+000	9	...........	1467.52
	208	2.6125	2.92014E-001	4.01925E-007	0.00000E+000	2.92024E-001	0.00000E+000	9	...........	1467.52
	209	2.625	2.91011E-001	3.02164E-007	0.00000E+000	2.91024E-001	0.00000E+000	9	...........	1467.52
	210	2.6375	2.90022E-001	2.48919E-007	0.00000E+000	2.90024E-001	0.00000E+000	9	...........	1467.52
	211	2.65	2.89028E-001	1.38330E-007	0.00000E+000	2.89025E-001	0.00000E+000	9	...........	1467.52
	212	2.6625	2.88031E-001	7.72430E-008	0.00000E+000	2.88025E-001	0.00000E+000	9	...........	1467.52
	213	2.675	2.87025E-001	1.91860E-008	0.00000E+000	2.87025E-001	0.00000E+000	9	...........	1467.52
	214	2.6875	2.86029E-001	-7.55409E-008	0.00000E+000	2.86026E-001	0.00000E+000	9	...........	1467.52
	215	2.7	2.85029E-001	-1.13236E-007	0.00000E+000	2.85026E-001	0.00000E+000	9	...........	1467.52
	216	2.7125	2.84033E-001	-1.92412E-007	0.00000E+000	2.84026E-001	0.00000E+000	9	...........	1467.52
	217	2.725	2.83033E-001	-2.65708E-007	0.00000E+000	2.83027E-001	0.00000E+000	9	...........	1467.52
	218	2.7375	2.82028E-001	-3.00595E-007	0.00000E+000	2.82027E-001	0.00000E+000	9	...........	1467.52
	219	2.75	2.81018E-001	-3.90466E-007	0.00000E+000	2.81027E-001	0.00000E+000	9	...........	1467.52
	220	2.7625	2.80016E-001	-4.30923E-007	0.00000E+000	2.80028E-001	0.00000E+000	9	...........	1467.52
	221	2.775	2.79015E-001	-4.76682E-007	0.00000E+000	2.79028E-001	0.00000E+000	9	...........	1467.52
	222	2.7875	2.78024E-001	-5.57953E-007	0.00000E+000	2.78028E-001	0.00000E+000	9	...........	1467.52
	223	2.8	2.77029E-001	-5.84286E-007	0.00000E+000	2.77029E-001	0.00000E+000	9	...........	1467.52
	224	2.8125	2.76039E-001	-6.48670E-007	0.00000E+000	2.76029E-001	0.00000E+000	9	...........	1467.52
	225	2.825	2.75033E-001	-7.14569E-007	0.00000E+000	2.75029E-001	0.00000E+000	9	...........	1467.52
	226	2.8375	2.74030E-001	-7.39075E-007	0.00000E+000	2.74030E-001	0.00000E+000	9	...........	1467.52
	227	2.85	2.73037E-001	-8.16826E-007	0.00000E+000	2.73030E-001	0.00000E+000	9	...........	1467.52
	228	2.8625	2.72036E-001	-8.67397E-007	0.00000E+000	2.72031E-001	0.00000E+000	9	...........	1467.52
	229	2.875	2.71042E-001	-8.96314E-007	0.00000E+000	2.71031E-001	0.00000E+000	9	...........	1467.52
	230	2.8875	2.70030E-001	-9.93447E-007	0.00000E+000	2.70019E-001	0.00000E+000	9	...........	1467.52
	231	2.9	2.69038E-001	-1.00093E-006	0.00000E+000	2.69019E-001	0.00000E+000	9	...........	1467.52
	232	2.9125	2.68010E-001	-1.05382E-006	0.00000E+000	2.68019E-001	0.00000E+000	9	...........	1467.52
	233	2.925	2.67007E-001	-1.11486E-006	0.00000E+000	2.67020E-001	0.00000E+000	9	...........	1467.52
	234	2.9375	2.66026E-001	-1.12983E-006	0.00000E+000	2.66020E-001	0.00000E+000	9	...........	1467.52
	235	2.95	2.65018E-001	-1.20193E-006	0.00000E+000	2.65020E-001	0.00000E+000	9	...........	1467.52
	236	2.9625	2.64007E-001	-1.24056E-006	0.00000E+000	2.64021E-001	0.00000E+000	9	...........	1467.52
	237	2.975	2.63003E-001	-1.26515E-006	0.00000E+000	2.63021E-001	0.00000E+000	9	...........	1467.52
	238	2.9875	2.61999E-001	-1.34192E-006	0.00000E+000	2.62022E-001	0.00000E+000	9	...........	1467.52
	239	3	2.61003E-001	-1.36549E-006	0.00000E+000	2.61022E-001	0.00000E+000	9	...........	1467.52
	240	3.0125	2.60008E-001	-1.41353E-006	0.00000E+000	2.60022E-001	0.00000E+000	9	...........	1467.52
	241	3.025	2.59015E-001	-1.47265E-006	0.00000E+000	2.59023E-001	0.00000E+000	9	...........	1467.52
	242	3.0375	2.58015E-001	-1.48419E-006	0.00000E+000	2.58023E-001	0.00000E+000	9	...........	1467.52
	243	3.05	2.57019E-001	-1.55165E-006	0.00000E+000	2.57023E-001	0.00000E+000	9	...........	1467.52
	244	3.0625	2.56011E-001	-1.59175E-006	0.00000E+000	2.56024E-001	0.00000E+000	9	...........	1467.52
	245	3.075	2.54997E-001	-1.61568E-006	0.00000E+000	2.55024E-001	0.00000E+000	9	...........	1467.52
	246	3.0875	2.53997E-001	-1.69392E-006	0.00000E+000	2.54024E-001	0.00000E+000	9	...........	1467.52
	247	3.1	2.53000E-001	-1.71147E-006	0.00000E+000	2.53025E-001	0.00000E+000	9	...........	1467.52
	248	3.1125	2.52011E-001	-1.76147E-006	0.00000E+000	2.52025E-001	0.00000E+000	9	...........	1467.52
	249	3.125	2.51022E-001	-1.81872E-006	0.00000E+000	2.51025E-001	0.00000E+000	9	...........	1467.52
	250	3.1375	2.50026E-001	-1.83195E-006	0.00000E+000	2.50026E-001	0.00000E+000	9	...........	1467.52
	251	3.15	2.49020E-001	-1.90137E-006	0.00000E+000	2.49026E-001	0.00000E+000	9	...........	1467.52
	252	3.1625	2.48022E-001	-1.93844E-006	0.00000E+000	2.48026E-001	0.00000E+000	9	...........	1467.52
	253	3.175	2.47024E-001	-1.95885E-006	0.00000E+000	2.47027E-001	0.00000E+000	9	...........	1467.52
	254	3.1875	2.46034E-001	-2.03749E-006	0.00000E+000	2.46027E-001	0.00000E+000	9	...........	1467.52
	255	3.2	2.45034E-001	-2.07104E-006	0.00000E+000	2.45015E-001	0.00000E+000	9	...........	1467.52
	256	3.2125	2.44033E-001	-2.10277E-006	0.00000E+000	2.44015E-001	0.00000E+000	9	...........	1467.52
	257	3.225	2.43021E-001	-2.16345E-006	0.00000E+000	2.43016E-001	0.00000E+000	9	...........	1467.52
	258	3.2375	2.42000E-001	-2.18560E-006	0.00000E+000	2.42016E-001	0.00000E+000	9	...........	1467.52
	259	3.25	2.40997E-001	-2.25065E-006	0.00000E+000	2.41016E-001	0.00000E+000	9	...........	1467.52
	260	3.2625	2.40008E-001	-2.29080E-006	0.00000E+000	2.40017E-001	0.00000E+000	9	...........	1467.52
	261	3.275	2.39004E-001	-2.31250E-006	0.00000E+000	2.39017E-001	0.00000E+000	9	...........	1467.52
	262	3.2875	2.38008E-001	-2.38557E-006	0.00000E+000	2.38017E-001	0.00000E+000	9	...........	1467.52
	263	3.3	2.37013E-001	-2.40932E-006	0.00000E+000	2.37018E-001	0.00000E+000	9	...........	1467.52
	264	3.3125	2.36009E-001	-2.44964E-006	0.00000E+000	2.36018E-001	0.00000E+000	9	...........	1467.52
	265	3.325	2.35017E-001	-2.51255E-006	0.00000E+000	2.35018E-001	0.00000E+000	9	...........	1467.52
	266	3.3375	2.34028E-001	-2.53234E-006	0.00000E+000	2.34019E-001	0.00000E+000	9	...........	1467.52
	267	3.35	2.33025E-001	-2.59271E-006	0.00000E+000	2.33019E-001	0.00000E+000	9	...........	1467.52
	268	3.3625	2.32025E-001	-2.64119E-006	0.00000E+000	2.32019E-001	0.00000E+000	9	...........	1467.52
	269	3.375	2.31020E-001	-2.65932E-006	0.00000E+000	2.31020E-001	0.00000E+000	9	...........	1467.52
	270	3.3875	2.30007E-001	-2.73569E-006	0.00000E+000	2.30020E-001	0.00000E+000	9	...........	1467.52
	271	3.4	2.29007E-001	-2.76104E-006	0.00000E+000	2.29021E-001	0.00000E+000	9	...........	1467.52
	272	3.4125	2.28010E-001	-2.80614E-006	0.00000E+000	2.28021E-001	0.00000E+000	9	...........	1467.52
	273	3.425	2.27008E-001	-2.87137E-006	0.00000E+000	2.27021E-001	0.00000E+000	9	...........	1467.52
	274	3.4375	2.26008E-001	-2.88473E-006	0.00000E+000	2.26022E-001	0.00000E+000	9	...........	1467.52
	275	3.45	2.25012E-001	-2.95451E-006	0.00000E+000	2.25022E-001	0.00000E+000	9	...........	1467.52
	276	3.4625	2.24025E-001	-3.00802E-006	0.00000E+000	2.24022E-001	0.00000E+000	9	...........	1467.52
	277	3.475	2.23021E-001	-3.03288E-006	0.00000E+000	2.23023E-001	0.00000E+000	9	...........	1467.52
	278	3.4875	2.22027E-001	-3.10480E-006	0.00000E+000	2.22023E-001	0.00000E+000	9	...........	1467.52
	279	3.5	2.21023E-001	-3.13510E-006	0.00000E+000	2.21023E-001	0.00000E+000	9	...........	1467.52
	280	3.5125	2.20009E-001	-3.19119E-006	0.00000E+000	2.20011E-001	0.00000E+000	9	...........	1467.52
	281	3.525	2.19012E-001	-3.25001E-006	0.00000E+000	2.19012E-001	0.00000E+000	9	...........	1467.52
	282	3.5375	2.18029E-001	-3.26921E-006	0.00000E+000	2.18012E-001	0.00000E+000	9	...........	1467.52
	283	3.55	2.16997E-001	-3.33435E-006	0.00000E+000	2.17012E-001	0.00000E+000	9	...........	1467.52
	284	3.5625	2.16005E-001	-3.38777E-006	0.00000E+000	2.16013E-001	0.00000E+000	9	...........	1467.52
	285	3.575	2.15005E-001	-3.41255E-006	0.00000E+000	2.15013E-001	0.00000E+000	9	...........	1467.52
	286	3.5875	2.13997E-001	-3.49667E-006	0.00000E+000	2.14013E-001	0.00000E+000	9	...........	1467.52
	287	3.6	2.13007E-001	-3.52857E-006	0.00000E+000	2.13014E-001	0.00000E+000	9	...........	1467.52
	288	3.6125	2.12018E-001	-3.56716E-006	0.00000E+000	2.12014E-001	0.00000E+000	9	...........	1467.52
	289	3.625	2.11012E-001	-3.64032E-006	0.00000E+000	2.11014E-001	0.00000E+000	9	...........	1467.52
	290	3.6375	2.10012E-001	-3.66991E-006	0.00000E+000	2.10015E-001	0.00000E+000	9	...........	1467.52
	291	3.65	2.09021E-001	-3.73438E-006	0.00000E+000	2.09015E-001	0.00000E+000	9	...........	1467.52
	292	3.6625	2.08020E-001	-3.78994E-006	0.00000E+000	2.08015E-001	0.00000E+000	9	...........	1467.52
	293	3.675	2.07017E-001	-3.82434E-006	0.00000E+000	2.07016E-001	0.00000E+000	9	...........	1467.52
	294	3.6875	2.06031E-001	-3.90026E-006	0.00000E+000	2.06016E-001	0.00000E+000	9	...........	1467.52
	295	3.7	2.05032E-001	-3.93858E-006	0.00000E+000	2.05016E-001	0.00000E+000	9	...........	1467.52
	296	3.7125	2.04018E-001	-3.99044E-006	0.00000E+000	2.04017E-001	0.00000E+000	9	...........	1467.52
	297	3.725	2.03017E-001	-4.06779E-006	0.00000E+000	2.03017E-001	0.00000E+000	9	...........	1467.52
	298	3.7375	2.02017E-001	-4.10366E-006	0.00000E+000	2.02017E-001	0.00000E+000	9	...........	1467.52
	299	3.75	2.01024E-001	-4.16845E-006	0.00000E+000	2.01018E-001	0.00000E+000	9	...........	1467.52
	300	3.7625	2.00033E-001	-4.23983E-006	0.00000E+000	2.00018E-001	0.00000E+000	9	...........	1467.52
	301	3.775	1.99041E-001	-4.26607E-006	0.00000E+000	1.99019E-001	0.00000E+000	9	...........	1467.52
	302	3.7875	1.98027E-001	-4.34917E-006	0.00000E+000	1.98019E-001	0.00000E+000	9	...........	1467.52
	303	3.8	1.97029E-001	-4.39564E-006	0.00000E+000	1.97019E-001	0.00000E+000	9	...........	1467.52
	304	3.8125	1.96029E-001	-4.43922E-006	0.00000E+000	1.96020E-001	0.00000E+000	9	...........	1467.52
	305	3.825	1.95031E-001	-4.52347E-006	0.00000E+000	1.95020E-001	0.00000E+000	9	...........	1467.52
	306	3.8375	1.94027E-001	-4.57641E-006	0.00000E+000	1.94008E-001	0.00000E+000	9	...........	1467.52
	307	3.85	1.93028E-001	-4.62675E-006	0.00000E+000	1.93008E-001	0.00000E+000	9	...........	1467.52
	308	3.8625	1.92035E-001	-4.69283E-006	0.00000E+000	1.92008E-001	0.00000E+000	9	...........	1467.52
	309	3.875	1.90998E-001	-4.72549E-006	0.00000E+000	1.91009E-001	0.00000E+000	9	...........	1467.52
	310	3.8875	1.90003E-001	-4.81803E-006	0.00000E+000	1.90009E-001	0.00000E+000	9	...........	1467.52
	311	3.9	1.89013E-001	-4.86437E-006	0.00000E+000	1.89010E-001	0.00000E+000	9	...........	1467.52
	312	3.9125	1.88017E-001	-4.91789E-006	0.00000E+000	1.88010E-001	0.00000E+000	9	...........	1467.52
	313	3.925	1.87016E-001	-5.00749E-006	0.00000E+000	1.87010E-001	0.00000E+000	9	...........	1467.52
	314	3.9375	1.86023E-001	-5.03908E-006	0.00000E+000	1.86011E-001	0.00000E+000	9	...........	1467.52
	315	3.95	1.85017E-001	-5.11661E-006	0.00000E+000	1.85011E-001	0.00000E+000	9	...........	1467.52
	316	3.9625	1.84017E-001	-5.18255E-006	0.00000E+000	1.84011E-001	0.00000E+000	9	...........	1467.52
	317	3.975	1.83022E-001	-5.21940E-006	0.00000E+000	1.83012E-001	0.00000E+000	9	...........	1467.52
	318	3.9875	1.82023E-001	-5.29925E-006	0.00000E+000	1.82012E-001	0.00000E+000	9	...........	1467.52
	319	4	1.81020E-001	-5.35752E-006	0.00000E+000	1.81012E-001	0.00000E+000	9	...........	1467.52
	320	4.0125	1.80009E-001	-5.40921E-006	0.00000E+000	1.80013E-001	0.00000E+000	9	...........	1467.52
	321	4.025	1.78995E-001	-5.49543E-006	0.00000E+000	1.79013E-001	0.00000E+000	9	...........	1467.52
	322	4.0375	1.77993E-001	-5.53548E-006	0.00000E+000	1.78013E-001	0.00000E+000	9	...........	1467.52
	323	4.05	1.76994E-001	-5.61114E-006	0.00000E+000	1.77014E-001	0.00000E+000	9	...........	1467.52
	324	4.0625	1.76014E-001	-5.68403E-006	0.00000E+000	1.76014E-001	0.00000E+000	9	...........	1467.52
	325	4.075	1.75004E-001	-5.72177E-006	0.00000E+000	1.75014E-001	0.00000E+000	9	...........	1467.52
	326	4.0875	1.74008E-001	-5.81334E-006	0.00000E+000	1.74015E-001	0.00000E+000	9	...........	1467.52
	327	4.1	1.73020E-001	-5.86832E-006	0.00000E+000	1.73015E-001	0.00000E+000	9	...........	1467.52
	328	4.1125	1.72006E-001	-5.91894E-006	0.00000E+000	1.72015E-001	0.00000E+000	9	...........	1467.52
	329	4.125	1.71013E-001	-6.01094E-006	0.00000E+000	1.71016E-001	0.00000E+000	9	...........	1467.52
	330	4.1375	1.70023E-001	-6.05425E-006	0.00000E+000	1.70016E-001	0.00000E+000	9	...........	1467.52
	331	4.15	1.69011E-001	-6.14265E-006	0.00000E+000	1.69004E-001	0.00000E+000	9	...........	1467.52
	332	4.1625	1.68013E-001	-6.21657E-006	0.00000E+000	1.68004E-001	0.00000E+000	9	...........	1467.52
	333	4.175	1.67011E-001	-6.24224E-006	0.00000E+000	1.67005E-001	0.00000E+000	9	...........	1467.52
	334	4.1875	1.65991E-001	-6.34685E-006	0.00000E+000	1.66005E-001	0.00000E+000	9	...........	1467.52
	335	4.2	1.64989E-001	-6.40255E-006	0.00000E+000	1.65005E-001	0.00000E+000	9	...........	1467.52
	336	4.2125	1.64004E-001	-6.45624E-006	0.00000E+000	1.64006E-001	0.00000E+000	9	...........	1467.52
	337	4.225	1.63003E-001	-6.55573E-006	0.00000E+000	1.63006E-001	0.00000E+000	9	...........	1467.52
	338	4.2375	1.62006E-001	-6.59936E-006	0.00000E+000	1.62006E-001	0.00000E+000	9	...........	1467.52
	339	4.25	1.61013E-001	-6.68023E-006	0.00000E+000	1.61007E-001	0.00000E+000	9	...........	1467.52
	340	4.2625	1.60014E-001	-6.75749E-006	0.00000E+000	1.60007E-001	0.00000E+000	9	...........	1467.52
	341	4.275	1.59010E-001	-6.79527E-006	0.00000E+000	1.59007E-001	0.00000E+000	9	...........	1467.52
	342	4.2875	1.58026E-001	-6.89191E-006	0.00000E+000	1.58008E-001	0.00000E+000	9	...........	1467.52
	343	4.3	1.57033E-001	-6.95697E-006	0.00000E+000	1.57008E-001	0.00000E+000	9	...........	1467.52
	344	4.3125	1.56023E-001	-7.00455E-006	0.00000E+000	1.56009E-001	0.00000E+000	9	...........	1467.52
	345	4.325	1.55024E-001	-7.11167E-006	0.00000E+000	1.55009E-001	0.00000E+000	9	...........	1467.52
	346	4.3375	1.54020E-001	-7.15493E-006	0.00000E+000	1.54009E-001	0.00000E+000	9	...........	1467.52
	347	4.35	1.53006E-001	-7.23446E-006	0.00000E+000	1.53010E-001	0.00000E+000	9	...........	1467.52
	348	4.3625	1.52012E-001	-7.31253E-006	0.00000E+000	1.52010E-001	0.00000E+000	9	...........	1467.52
	349	4.375	1.51009E-001	-7.36568E-006	0.00000E+000	1.51010E-001	0.00000E+000	9	...........	1467.52
	350	4.3875	1.50010E-001	-7.46375E-006	0.00000E+000	1.50011E-001	0.00000E+000	9	...........	1467.52
	351	4.4	1.49009E-001	-7.52662E-006	0.00000E+000	1.49011E-001	0.00000E+000	9	...........	1467.52
	352	4.4125	1.48009E-001	-7.57670E-006	0.00000E+000	1.48011E-001	0.00000E+000	9	...........	1467.52
	353	4.425	1.47021E-001	-7.68261E-006	0.00000E+000	1.47012E-001	0.00000E+000	9	...........	1467.52
	354	4.4375	1.46012E-001	-7.74009E-006	0.00000E+000	1.46012E-001	0.00000E+000	9	...........	1467.52
	355	4.45	1.45014E-001	-7.81316E-006	0.00000E+000	1.45012E-001	0.00000E+000	9	...........	1467.52
	356	4.4625	1.44005E-001	-7.91769E-006	0.00000E+000	1.44000E-001	0.00000E+000	9	...........	1467.52
	357	4.475	1.43011E-001	-7.95387E-006	0.00000E+000	1.43001E-001	0.00000E+000	9	...........	1467.52
	358	4.4875	1.42013E-001	-8.04530E-006	0.00000E+000	1.42001E-001	0.00000E+000	9	...........	1467.52
	359	4.5	1.41018E-001	-8.12942E-006	0.00000E+000	1.41001E-001	0.00000E+000	9	...........	1467.52
	360	4.5125	1.39996E-001	-8.17955E-006	0.00000E+000	1.40002E-001	0.00000E+000	9	...........	1467.52
	361	4.525	1.39008E-001	-8.28902E-006	0.00000E+000	1.39002E-001	0.00000E+000	9	...........	1467.52
	362	4.5375	1.38004E-001	-8.34347E-006	0.00000E+000	1.38002E-001	0.00000E+000	9	...........	1467.52
	363	4.55	1.37009E-001	-8.42096E-006	0.00000E+000	1.37003E-001	0.00000E+000	9	...........	1467.52
	364	4.5625	1.36007E-001	-8.51501E-006	0.00000E+000	1.36003E-001	0.00000E+000	9	...........	1467.52
	365	4.575	1.35011E-001	-8.56710E-006	0.00000E+000	1.35003E-001	0.00000E+000	9	...........	1467.52
	366	4.5875	1.34012E-001	-8.66548E-006	0.00000E+000	1.34004E-001	0.00000E+000	9	...........	1467.52
	367	4.6	1.33020E-001	-8.75259E-006	0.00000E+000	1.33004E-001	0.00000E+000	9	...........	1467.52
	368	4.6125	1.32022E-001	-8.80873E-006	0.00000E+000	1.32004E-001	0.00000E+000	9	...........	1467.52
	369	4.625	1.31022E-001	-8.92057E-006	0.00000E+000	1.31005E-001	0.00000E+000	9	...........	1467.52
	370	4.6375	1.30017E-001	-8.98402E-006	0.00000E+000	1.30005E-001	0.00000E+000	9	...........	1467.52
	371	4.65	1.29019E-001	-9.06136E-006	0.00000E+000	1.29005E-001	0.00000E+000	9	...........	1467.52
	372	4.6625	1.28021E-001	-9.16999E-006	0.00000E+000	1.28006E-001	0.00000E+000	9	...........	1467.52
	373	4.675	1.27004E-001	-9.22324E-006	0.00000E+000	1.27006E-001	0.00000E+000	9	...........	1467.52
	374	4.6875	1.26005E-001	-9.32558E-006	0.00000E+000	1.26006E-001	0.00000E+000	9	...........	1467.52
	375	4.7	1.25006E-001	-9.41728E-006	0.00000E+000	1.25007E-001	0.00000E+000	9	...........	1467.52
	376	4.7125	1.24006E-001	-9.47935E-006	0.00000E+000	1.24007E-001	0.00000E+000	9	...........	1467.52
	377	4.725	1.23009E-001	-9.59292E-006	0.00000E+000	1.23008E-001	0.00000E+000	9	...........	1467.52
	378	4.7375	1.22018E-001	-9.65829E-006	0.00000E+000	1.22008E-001	0.00000E+000	9	...........	1467.52
	379	4.75	1.21015E-001	-9.74535E-006	0.00000E+000	1.21008E-001	0.00000E+000	9	...........	1467.52
	380	4.7625	1.20015E-001	-9.86267E-006	0.00000E+000	1.20009E-001	0.00000E+000	9	...........	1467.52
	381	4.775	1.19019E-001	-9.91600E-006	0.00000E+000	1.19009E-001	0.00000E+000	9	...........	1467.52
[...]
	1005	12.575	2.95048E-001	6.85705E-007	0.00000E+000	2.95022E-001	0.00000E+000	9	...........	1467.70
	1006	12.5875	2.94013E-001	5.91379E-007	0.00000E+000	2.94023E-001	0.00000E+000	9	...........	1467.70
	1007	12.6	2.93018E-001	4.98524E-007	0.00000E+000	2.93023E-001	0.00000E+000	9	...........	1467.70
	1008	12.6125	2.92017E-001	3.75459E-007	0.00000E+000	2.92024E-001	0.00000E+000	9	...........	1467.70
	1009	12.625	2.91010E-001	3.14773E-007	0.00000E+000	2.91024E-001	0.00000E+000	9	...........	1467.70
	1010	12.6375	2.90022E-001	2.26774E-007	0.00000E+000	2.90024E-001	0.00000E+000	9	...........	1467.70
	1011	12.65	2.89027E-001	1.42295E-007	0.00000E+000	2.89025E-001	0.00000E+000	9	...........	1467.70
	1012	12.6625	2.88031E-001	9.54665E-008	0.00000E+000	2.88025E-001	0.00000E+000	9	...........	1467.70
	1013	12.675	2.87020E-001	2.65554E-009	0.00000E+000	2.87025E-001	0.00000E+000	9	...........	1467.70
	1014	12.6875	2.86020E-001	-5.76293E-008	0.00000E+000	2.86026E-001	0.00000E+000	9	...........	1467.70
	1015	12.7	2.85028E-001	-1.13191E-007	0.00000E+000	2.85026E-001	0.00000E+000	9	...........	1467.70
	1016	12.7125	2.84037E-001	-2.06670E-007	0.00000E+000	2.84026E-001	0.00000E+000	9	...........	1467.70
	1017	12.725	2.83027E-001	-2.38573E-007	0.00000E+000	2.83027E-001	0.00000E+000	9	...........	1467.70
	1018	12.7375	2.82019E-001	-3.12893E-007	0.00000E+000	2.82027E-001	0.00000E+000	9	...........	1467.70
	1019	12.75	2.81012E-001	-3.85876E-007	0.00000E+000	2.81027E-001	0.00000E+000	9	...........	1467.70
	1020	12.7625	2.80015E-001	-4.10249E-007	0.00000E+000	2.80028E-001	0.00000E+000	9	...........	1467.70
	1021	12.775	2.79018E-001	-4.92856E-007	0.00000E+000	2.79028E-001	0.00000E+000	9	...........	1467.70
	1022	12.7875	2.78021E-001	-5.39507E-007	0.00000E+000	2.78028E-001	0.00000E+000	9	...........	1467.70
	1023	12.8	2.77029E-001	-5.74305E-007	0.00000E+000	2.77029E-001	0.00000E+000	9	...........	1467.70
	1024	12.8125	2.76029E-001	-6.66136E-007	0.00000E+000	2.76029E-001	0.00000E+000	9	...........	1467.70
	1025	12.825	2.75021E-001	-6.86276E-007	0.00000E+000	2.75029E-001	0.00000E+000	9	...........	1467.70
	1026	12.8375	2.74028E-001	-7.61398E-007	0.00000E+000	2.74030E-001	0.00000E+000	9	...........	1467.70
	1027	12.85	2.73034E-001	-8.20212E-007	0.00000E+000	2.73030E-001	0.00000E+000	9	...........	1467.70
	1028	12.8625	2.72036E-001	-8.37188E-007	0.00000E+000	2.72031E-001	0.00000E+000	9	...........	1467.70
	1029	12.875	2.71045E-001	-9.19573E-007	0.00000E+000	2.71031E-001	0.00000E+000	9	...........	1467.70
	1030	12.8875	2.70033E-001	-9.72417E-007	0.00000E+000	2.70019E-001	0.00000E+000	9	...........	1467.70
	1031	12.9	2.69039E-001	-9.90997E-007	0.00000E+000	2.69019E-001	0.00000E+000	9	...........	1467.70
	1032	12.9125	2.68002E-001	-1.07204E-006	0.00000E+000	2.68019E-001	0.00000E+000	9	...........	1467.70
	1033	12.925	2.67009E-001	-1.09664E-006	0.00000E+000	2.67020E-001	0.00000E+000	9	...........	1467.70
	1034	12.9375	2.66016E-001	-1.14873E-006	0.00000E+000	2.66020E-001	0.00000E+000	9	...........	1467.70
	1035	12.95	2.65015E-001	-1.21160E-006	0.00000E+000	2.65020E-001	0.00000E+000	9	...........	1467.70
	1036	12.9625	2.64013E-001	-1.22109E-006	0.00000E+000	2.64021E-001	0.00000E+000	9	...........	1467.70
	1037	12.975	2.63011E-001	-1.28993E-006	0.00000E+000	2.63021E-001	0.00000E+000	9	...........	1467.70
	1038	12.9875	2.62008E-001	-1.33203E-006	0.00000E+000	2.62022E-001	0.00000E+000	9	...........	1467.70
	1039	13	2.61009E-001	-1.35966E-006	0.00000E+000	2.61022E-001	0.00000E+000	9	...........	1467.70
	1040	13.0125	2.60010E-001	-1.44044E-006	0.00000E+000	2.60022E-001	0.00000E+000	9	...........	1467.70
	1041	13.025	2.59020E-001	-1.45398E-006	0.00000E+000	2.59023E-001	0.00000E+000	9	...........	1467.70
	1042	13.0375	2.58015E-001	-1.50821E-006	0.00000E+000	2.58023E-001	0.00000E+000	9	...........	1467.70
	1043	13.05	2.57021E-001	-1.56083E-006	0.00000E+000	2.57023E-001	0.00000E+000	9	...........	1467.70
	1044	13.0625	2.56019E-001	-1.56756E-006	0.00000E+000	2.56024E-001	0.00000E+000	9	...........	1467.70
	1045	13.075	2.55004E-001	-1.64531E-006	0.00000E+000	2.55024E-001	0.00000E+000	9	...........	1467.70
	1046	13.0875	2.54001E-001	-1.68367E-006	0.00000E+000	2.54024E-001	0.00000E+000	9	...........	1467.70
	1047	13.1	2.53006E-001	-1.71170E-006	0.00000E+000	2.53025E-001	0.00000E+000	9	...........	1467.70
	1048	13.1125	2.52014E-001	-1.78820E-006	0.00000E+000	2.52025E-001	0.00000E+000	9	...........	1467.70
	1049	13.125	2.51022E-001	-1.80121E-006	0.00000E+000	2.51025E-001	0.00000E+000	9	...........	1467.70
	1050	13.1375	2.50028E-001	-1.85107E-006	0.00000E+000	2.50026E-001	0.00000E+000	9	...........	1467.70
	1051	13.15	2.49016E-001	-1.90828E-006	0.00000E+000	2.49026E-001	0.00000E+000	9	...........	1467.70
	1052	13.1625	2.48025E-001	-1.91995E-006	0.00000E+000	2.48026E-001	0.00000E+000	9	...........	1467.70
	1053	13.175	2.47021E-001	-1.98336E-006	0.00000E+000	2.47027E-001	0.00000E+000	9	...........	1467.70
	1054	13.1875	2.46025E-001	-2.02457E-006	0.00000E+000	2.46027E-001	0.00000E+000	9	...........	1467.70
	1055	13.2	2.45026E-001	-2.06022E-006	0.00000E+000	2.45015E-001	0.00000E+000	9	...........	1467.70
	1056	13.2125	2.44031E-001	-2.11948E-006	0.00000E+000	2.44015E-001	0.00000E+000	9	...........	1467.70
	1057	13.225	2.43026E-001	-2.14126E-006	0.00000E+000	2.43016E-001	0.00000E+000	9	...........	1467.70
	1058	13.2375	2.42008E-001	-2.18867E-006	0.00000E+000	2.42016E-001	0.00000E+000	9	...........	1467.70
	1059	13.25	2.41001E-001	-2.25181E-006	0.00000E+000	2.41016E-001	0.00000E+000	9	...........	1467.57
	1060	13.2625	2.40016E-001	-2.26388E-006	0.00000E+000	2.40017E-001	0.00000E+000	9	...........	1467.52
	1061	13.275	2.39005E-001	-2.33219E-006	0.00000E+000	2.39017E-001	0.00000E+000	9	...........	1467.52
	1062	13.2875	2.38010E-001	-2.37046E-006	0.00000E+000	2.38017E-001	0.00000E+000	9	...........	1467.52
	1063	13.3	2.37013E-001	-2.39243E-006	0.00000E+000	2.37018E-001	0.00000E+000	9	...........	1467.52
	1064	13.3125	2.36007E-001	-2.46911E-006	0.00000E+000	2.36018E-001	0.00000E+000	9	...........	1467.52
	1065	13.325	2.35015E-001	-2.48479E-006	0.00000E+000	2.35018E-001	0.00000E+000	9	...........	1467.52
	1066	13.3375	2.34026E-001	-2.53608E-006	0.00000E+000	2.34019E-001	0.00000E+000	9	...........	1467.52
	1067	13.35	2.33020E-001	-2.59164E-006	0.00000E+000	2.33019E-001	0.00000E+000	9	...........	1467.52
	1068	13.3625	2.32022E-001	-2.60875E-006	0.00000E+000	2.32019E-001	0.00000E+000	9	...........	1467.52
	1069	13.375	2.31026E-001	-2.67233E-006	0.00000E+000	2.31020E-001	0.00000E+000	9	...........	1467.52
	1070	13.3875	2.30005E-001	-2.71947E-006	0.00000E+000	2.30020E-001	0.00000E+000	9	...........	1467.52
	1071	13.4	2.29013E-001	-2.74340E-006	0.00000E+000	2.29021E-001	0.00000E+000	9	...........	1467.52
	1072	13.4125	2.28013E-001	-2.82133E-006	0.00000E+000	2.28021E-001	0.00000E+000	9	...........	1467.52
	1073	13.425	2.27008E-001	-2.84824E-006	0.00000E+000	2.27021E-001	0.00000E+000	9	...........	1467.52
	1074	13.4375	2.26010E-001	-2.89039E-006	0.00000E+000	2.26022E-001	0.00000E+000	9	...........	1467.52
	1075	13.45	2.25007E-001	-2.95723E-006	0.00000E+000	2.25022E-001	0.00000E+000	9	...........	1467.52
	1076	13.4625	2.24030E-001	-2.97536E-006	0.00000E+000	2.24022E-001	0.00000E+000	9	...........	1467.52
	1077	13.475	2.23017E-001	-3.04264E-006	0.00000E+000	2.23023E-001	0.00000E+000	9	...........	1467.52
	1078	13.4875	2.22025E-001	-3.09188E-006	0.00000E+000	2.22023E-001	0.00000E+000	9	...........	1467.52
	1079	13.5	2.21025E-001	-3.11362E-006	0.00000E+000	2.21023E-001	0.00000E+000	9	...........	1467.52
	1080	13.5125	2.20015E-001	-3.20933E-006	0.00000E+000	2.20011E-001	0.00000E+000	9	...........	1467.52
	1081	13.525	2.19019E-001	-3.22541E-006	0.00000E+000	2.19012E-001	0.00000E+000	9	...........	1467.52
	1082	13.5375	2.18034E-001	-3.26863E-006	0.00000E+000	2.18012E-001	0.00000E+000	9	...........	1467.52
	1083	13.55	2.17005E-001	-3.33983E-006	0.00000E+000	2.17012E-001	0.00000E+000	9	...........	1467.52
	1084	13.5625	2.16010E-001	-3.35427E-006	0.00000E+000	2.16013E-001	0.00000E+000	9	...........	1467.52
	1085	13.575	2.15004E-001	-3.43157E-006	0.00000E+000	2.15013E-001	0.00000E+000	9	...........	1467.52
	1086	13.5875	2.13994E-001	-3.48228E-006	0.00000E+000	2.14013E-001	0.00000E+000	9	...........	1467.52
	1087	13.6	2.12998E-001	-3.51463E-006	0.00000E+000	2.13014E-001	0.00000E+000	9	...........	1467.52
	1088	13.6125	2.12011E-001	-3.59340E-006	0.00000E+000	2.12014E-001	0.00000E+000	9	...........	1467.52
	1089	13.625	2.11005E-001	-3.61853E-006	0.00000E+000	2.11014E-001	0.00000E+000	9	...........	1467.52
	1090	13.6375	2.10002E-001	-3.67445E-006	0.00000E+000	2.10015E-001	0.00000E+000	9	...........	1467.52
	1091	13.65	2.09017E-001	-3.74414E-006	0.00000E+000	2.09015E-001	0.00000E+000	9	...........	1467.52
	1092	13.6625	2.08022E-001	-3.76588E-006	0.00000E+000	2.08015E-001	0.00000E+000	9	...........	1467.52
	1093	13.675	2.07013E-001	-3.83566E-006	0.00000E+000	2.07016E-001	0.00000E+000	9	...........	1467.52
	1094	13.6875	2.06023E-001	-3.88837E-006	0.00000E+000	2.06016E-001	0.00000E+000	9	...........	1467.52
	1095	13.7	2.05029E-001	-3.92223E-006	0.00000E+000	2.05016E-001	0.00000E+000	9	...........	1467.52
	1096	13.7125	2.04014E-001	-4.00221E-006	0.00000E+000	2.04017E-001	0.00000E+000	9	...........	1467.52
	1097	13.725	2.03008E-001	-4.03955E-006	0.00000E+000	2.03017E-001	0.00000E+000	9	...........	1467.52
	1098	13.7375	2.02015E-001	-4.09292E-006	0.00000E+000	2.02017E-001	0.00000E+000	9	...........	1467.52
	1099	13.75	2.01012E-001	-4.17593E-006	0.00000E+000	2.01018E-001	0.00000E+000	9	...........	1467.52
	1100	13.7625	2.00026E-001	-4.19696E-006	0.00000E+000	2.00018E-001	0.00000E+000	9	...........	1467.52
	1101	13.775	1.99034E-001	-4.26620E-006	0.00000E+000	1.99019E-001	0.00000E+000	9	...........	1467.52
	1102	13.7875	1.98021E-001	-4.33184E-006	0.00000E+000	1.98019E-001	0.00000E+000	9	...........	1467.52
	1103	13.8	1.97032E-001	-4.35906E-006	0.00000E+000	1.97019E-001	0.00000E+000	9	...........	1467.52
	1104	13.8125	1.96039E-001	-4.44697E-006	0.00000E+000	1.96020E-001	0.00000E+000	9	...........	1467.52
	1105	13.825	1.95033E-001	-4.49179E-006	0.00000E+000	1.95020E-001	0.00000E+000	9	...........	1467.52
	1106	13.8375	1.94025E-001	-4.56005E-006	0.00000E+000	1.94008E-001	0.00000E+000	9	...........	1467.52
	1107	13.85	1.93027E-001	-4.62337E-006	0.00000E+000	1.93008E-001	0.00000E+000	9	...........	1467.52
	1108	13.8625	1.92029E-001	-4.65331E-006	0.00000E+000	1.92008E-001	0.00000E+000	9	...........	1467.52
	1109	13.875	1.90996E-001	-4.73128E-006	0.00000E+000	1.91009E-001	0.00000E+000	9	...........	1467.52
	1110	13.8875	1.90002E-001	-4.79357E-006	0.00000E+000	1.90009E-001	0.00000E+000	9	...........	1467.52
	1111	13.9	1.89009E-001	-4.83443E-006	0.00000E+000	1.89010E-001	0.00000E+000	9	...........	1467.52
	1112	13.9125	1.88015E-001	-4.92199E-006	0.00000E+000	1.88010E-001	0.00000E+000	9	...........	1467.52
	1113	13.925	1.87021E-001	-4.96365E-006	0.00000E+000	1.87010E-001	0.00000E+000	9	...........	1467.52
	1114	13.9375	1.86022E-001	-5.01792E-006	0.00000E+000	1.86011E-001	0.00000E+000	9	...........	1467.52
	1115	13.95	1.85012E-001	-5.10101E-006	0.00000E+000	1.85011E-001	0.00000E+000	9	...........	1467.52
	1116	13.9625	1.84021E-001	-5.14597E-006	0.00000E+000	1.84011E-001	0.00000E+000	9	...........	1467.52
	1117	13.975	1.83020E-001	-5.21935E-006	0.00000E+000	1.83012E-001	0.00000E+000	9	...........	1467.52
	1118	13.9875	1.82025E-001	-5.29064E-006	0.00000E+000	1.82012E-001	0.00000E+000	9	...........	1467.52
	1119	14	1.81028E-001	-5.33346E-006	0.00000E+000	1.81012E-001	0.00000E+000	9	...........	1467.52
	1120	14.0125	1.80014E-001	-5.41888E-006	0.00000E+000	1.80013E-001	0.00000E+000	9	...........	1467.52
	1121	14.025	1.79003E-001	-5.45715E-006	0.00000E+000	1.79013E-001	0.00000E+000	9	...........	1467.52
	1122	14.0375	1.77998E-001	-5.52679E-006	0.00000E+000	1.78013E-001	0.00000E+000	9	...........	1467.52
	1123	14.05	1.76998E-001	-5.61092E-006	0.00000E+000	1.77014E-001	0.00000E+000	9	...........	1467.52
	1124	14.0625	1.76019E-001	-5.64514E-006	0.00000E+000	1.76014E-001	0.00000E+000	9	...........	1467.52
	1125	14.075	1.75015E-001	-5.73131E-006	0.00000E+000	1.75014E-001	0.00000E+000	9	...........	1467.52
	1126	14.0875	1.74014E-001	-5.80064E-006	0.00000E+000	1.74015E-001	0.00000E+000	9	...........	1467.52
	1127	14.1	1.73016E-001	-5.83388E-006	0.00000E+000	1.73015E-001	0.00000E+000	9	...........	1467.52
	1128	14.1125	1.72014E-001	-5.93368E-006	0.00000E+000	1.72015E-001	0.00000E+000	9	...........	1467.52
	1129	14.125	1.71016E-001	-5.98185E-006	0.00000E+000	1.71016E-001	0.00000E+000	9	...........	1467.52
	1130	14.1375	1.70031E-001	-6.04441E-006	0.00000E+000	1.70016E-001	0.00000E+000	9	...........	1467.52
	1131	14.15	1.69012E-001	-6.15049E-006	0.00000E+000	1.69004E-001	0.00000E+000	9	...........	1467.52
	1132	14.1625	1.68015E-001	-6.17402E-006	0.00000E+000	1.68004E-001	0.00000E+000	9	...........	1467.52
	1133	14.175	1.67021E-001	-6.25649E-006	0.00000E+000	1.67005E-001	0.00000E+000	9	...........	1467.52
	1134	14.1875	1.65985E-001	-6.32003E-006	0.00000E+000	1.66005E-001	0.00000E+000	9	...........	1467.52
	1135	14.2	1.64993E-001	-6.36829E-006	0.00000E+000	1.65005E-001	0.00000E+000	9	...........	1467.52
	1136	14.2125	1.64008E-001	-6.46283E-006	0.00000E+000	1.64006E-001	0.00000E+000	9	...........	1467.52
	1137	14.225	1.63000E-001	-6.52254E-006	0.00000E+000	1.63006E-001	0.00000E+000	9	...........	1467.52
	1138	14.2375	1.62004E-001	-6.57797E-006	0.00000E+000	1.62006E-001	0.00000E+000	9	...........	1467.52
	1139	14.25	1.61009E-001	-6.67065E-006	0.00000E+000	1.61007E-001	0.00000E+000	9	...........	1467.46
	1140	14.2625	1.60013E-001	-6.70883E-006	0.00000E+000	1.60007E-001	0.00000E+000	9	...........	1467.43
	1141	14.275	1.59006E-001	-6.79790E-006	0.00000E+000	1.59007E-001	0.00000E+000	9	...........	1467.43
	1142	14.2875	1.58022E-001	-6.87783E-006	0.00000E+000	1.58008E-001	0.00000E+000	9	...........	1467.43
	1143	14.3	1.57028E-001	-6.91624E-006	0.00000E+000	1.57008E-001	0.00000E+000	9	...........	1467.43
	1144	14.3125	1.56025E-001	-7.01819E-006	0.00000E+000	1.56009E-001	0.00000E+000	9	...........	1467.43
	1145	14.325	1.55024E-001	-7.07335E-006	0.00000E+000	1.55009E-001	0.00000E+000	9	...........	1467.43
	1146	14.3375	1.54015E-001	-7.13385E-006	0.00000E+000	1.54009E-001	0.00000E+000	9	...........	1467.43
	1147	14.35	1.53007E-001	-7.22965E-006	0.00000E+000	1.53010E-001	0.00000E+000	9	...........	1467.43
	1148	14.3625	1.52000E-001	-7.26797E-006	0.00000E+000	1.52010E-001	0.00000E+000	9	...........	1467.43
	1149	14.375	1.51008E-001	-7.36212E-006	0.00000E+000	1.51010E-001	0.00000E+000	9	...........	1467.43
	1150	14.3875	1.50015E-001	-7.44009E-006	0.00000E+000	1.50011E-001	0.00000E+000	9	...........	1467.43
	1151	14.4	1.49021E-001	-7.48687E-006	0.00000E+000	1.49011E-001	0.00000E+000	9	...........	1467.43
	1152	14.4125	1.48028E-001	-7.58013E-006	0.00000E+000	1.48011E-001	0.00000E+000	9	...........	1467.43
	1153	14.425	1.47024E-001	-7.64358E-006	0.00000E+000	1.47012E-001	0.00000E+000	9	...........	1467.43
	1154	14.4375	1.46018E-001	-7.71104E-006	0.00000E+000	1.46012E-001	0.00000E+000	9	...........	1467.43
	1155	14.45	1.45015E-001	-7.80929E-006	0.00000E+000	1.45012E-001	0.00000E+000	9	...........	1467.43
	1156	14.4625	1.44008E-001	-7.87019E-006	0.00000E+000	1.44000E-001	0.00000E+000	9	...........	1467.43
	1157	14.475	1.43021E-001	-7.94665E-006	0.00000E+000	1.43001E-001	0.00000E+000	9	...........	1467.43
	1158	14.4875	1.42019E-001	-8.03265E-006	0.00000E+000	1.42001E-001	0.00000E+000	9	...........	1467.43
	1159	14.5	1.41017E-001	-8.08117E-006	0.00000E+000	1.41001E-001	0.00000E+000	9	...........	1467.43
	1160	14.5125	1.39994E-001	-8.19363E-006	0.00000E+000	1.40002E-001	0.00000E+000	9	...........	1467.43
	1161	14.525	1.39001E-001	-8.25062E-006	0.00000E+000	1.39002E-001	0.00000E+000	9	...........	1467.43
	1162	14.5375	1.38010E-001	-8.31420E-006	0.00000E+000	1.38002E-001	0.00000E+000	9	...........	1467.43
	1163	14.55	1.37002E-001	-8.41877E-006	0.00000E+000	1.37003E-001	0.00000E+000	9	...........	1467.43
	1164	14.5625	1.36008E-001	-8.46841E-006	0.00000E+000	1.36003E-001	0.00000E+000	9	...........	1467.43
	1165	14.575	1.35010E-001	-8.56037E-006	0.00000E+000	1.35003E-001	0.00000E+000	9	...........	1467.43
	1166	14.5875	1.34007E-001	-8.65082E-006	0.00000E+000	1.34004E-001	0.00000E+000	9	...........	1467.43
	1167	14.6	1.33018E-001	-8.69992E-006	0.00000E+000	1.33004E-001	0.00000E+000	9	...........	1467.43
	1168	14.6125	1.32029E-001	-8.81884E-006	0.00000E+000	1.32004E-001	0.00000E+000	9	...........	1467.43
	1169	14.625	1.31021E-001	-8.87743E-006	0.00000E+000	1.31005E-001	0.00000E+000	9	...........	1467.43
	1170	14.6375	1.30014E-001	-8.95986E-006	0.00000E+000	1.30005E-001	0.00000E+000	9	...........	1467.43
	1171	14.65	1.29021E-001	-9.06604E-006	0.00000E+000	1.29005E-001	0.00000E+000	9	...........	1467.43
	1172	14.6625	1.28018E-001	-9.11857E-006	0.00000E+000	1.28006E-001	0.00000E+000	9	...........	1467.43
	1173	14.675	1.27014E-001	-9.22667E-006	0.00000E+000	1.27006E-001	0.00000E+000	9	...........	1467.43
	1174	14.6875	1.26009E-001	-9.31248E-006	0.00000E+000	1.26006E-001	0.00000E+000	9	...........	1467.43
	1175	14.7	1.25009E-001	-9.37696E-006	0.00000E+000	1.25007E-001	0.00000E+000	9	...........	1467.43
	1176	14.7125	1.24011E-001	-9.49240E-006	0.00000E+000	1.24007E-001	0.00000E+000	9	...........	1467.43
	1177	14.725	1.23008E-001	-9.56075E-006	0.00000E+000	1.23008E-001	0.00000E+000	9	...........	1467.43
	1178	14.7375	1.22022E-001	-9.64015E-006	0.00000E+000	1.22008E-001	0.00000E+000	9	...........	1467.43
	1179	14.75	1.21015E-001	-9.74963E-006	0.00000E+000	1.21008E-001	0.00000E+000	9	...........	1467.43
	1180	14.7625	1.20018E-001	-9.81227E-006	0.00000E+000	1.20009E-001	0.00000E+000	9	...........	1467.43
	1181	14.775	1.19021E-001	-9.91631E-006	0.00000E+000	1.19009E-001	0.00000E+000	9	...........	1467.43
	1182	14.7875	1.17998E-001	-1.00283E-005	0.00000E+000	1.17997E-001	0.00000E+000	9	...........	1467.43
	1183	14.8	1.17010E-001	-1.00879E-005	0.00000E+000	1.16997E-001	0.00000E+000	9	...........	1467.43
	1184	14.8125	1.16019E-001	-1.02103E-005	0.00000E+000	1.15997E-001	0.00000E+000	9	...........	1467.43
	1185	14.825	1.15011E-001	-1.02743E-005	0.00000E+000	1.14998E-001	0.00000E+000	9	...........	1467.43
	1186	14.8375	1.13990E-001	-1.03654E-005	0.00000E+000	1.13998E-001	0.00000E+000	9	...........	1467.43
	1187	14.85	1.12998E-001	-1.04828E-005	0.00000E+000	1.12999E-001	0.00000E+000	9	...........	1467.43
	1188	14.8625	1.11995E-001	-1.05415E-005	0.00000E+000	1.11999E-001	0.00000E+000	9	...........	1467.43
	1189	14.875	1.11005E-001	-1.06597E-005	0.00000E+000	1.10999E-001	0.00000E+000	9	...........	1467.43
	1190	14.8875	1.10003E-001	-1.07622E-005	0.00000E+000	1.10000E-001	0.00000E+000	9	...........	1467.43
	1191	14.9	1.09008E-001	-1.08323E-005	0.00000E+000	1.09000E-001	0.00000E+000	9	...........	1467.43
	1192	14.9125	1.08002E-001	-1.09559E-005	0.00000E+000	1.08000E-001	0.00000E+000	9	...........	1467.43
	1193	14.925	1.07003E-001	-1.10381E-005	0.00000E+000	1.07001E-001	0.00000E+000	9	...........	1467.43
	1194	14.9375	1.06006E-001	-1.11251E-005	0.00000E+000	1.06001E-001	0.00000E+000	9	...........	1467.43
	1195	14.95	1.05000E-001	-1.12516E-005	0.00000E+000	1.05001E-001	0.00000E+000	9	...........	1467.43
	1196	14.9625	1.04016E-001	-1.13257E-005	0.00000E+000	1.04002E-001	0.00000E+000	9	...........	1467.43
	1197	14.975	1.03021E-001	-1.14423E-005	0.00000E+000	1.03002E-001	0.00000E+000	9	...........	1467.43
	1198	14.9875	1.02005E-001	-1.15471E-005	0.00000E+000	1.02002E-001	0.00000E+000	9	...........	1467.43
	1199	15	1.01005E-001	-1.16225E-005	0.00000E+000	1.01003E-001	0.00000E+000	9	...........	1467.43
	1200	15.0125	1.00012E-001	-1.17609E-005	0.00000E+000	1.00003E-001	0.00000E+000	9	...........	1467.43
CURVE4	TABLE
	Pt	T	Vf	Im	Vu	Sig	Ach	IERange	Over	Temp
	#	s	V vs. Ref.	A	V	V	V	#	bits	deg C
	1201	15.025	9.99971E-002	-1.06212E-005	0.00000E+000	1.00003E-001	0.00000E+000	9	...........	1467.43