File: input/ECSA_test/CV_ECSA_#1_#2.DTA
EXPLAIN
TAG	CV
TITLE	LABEL	ECSA	Test Identifier
DATE	LABEL	2/13/2024	Date
TIME	LABEL	8:47:01	Time
NOTES	NOTES	1	Notes...

PSTAT	PSTAT	IFC1010-36068	Potentiostat
VINIT	POTEN	1.00000E-001	F	Initial E (V)
VLIMIT1	POTEN	3.00000E-001	F	Scan Limit 1 (V)
VLIMIT2	POTEN	1.00000E-001	F	Scan Limit 2 (V)
VFINAL	POTEN	1.00000E-001	F	Final E (V)
SCANRATE	QUANT	2.00000E+001	A Real Number
STEPSIZE	QUANT	1.00000E+000	Step Size (mV)
CYCLES	IQUANT	3	Cycles (#)
IMODE	SELECTOR	1	I/E Range Mode
IRANGE	QUANT	3.00000E-001	Max Current (mA)
AREA	QUANT	1.00000E+000	Sample Area (cm^2)
EQDELAY	QUANT	0.00000E+000	Equil. Time (s)
IRCOMP	SELECTOR	0	IRComp
PFCOR	QUANT	5.00000E+001	PF Corr. (ohm)
SAMPLINGMODE	SELECTOR	2	Sampling Mode
EOC	QUANT	0.3246219	Open Circuit (V)
ELECTRODETYPE	SELECTOR	0	Electrode Type
STRIPPING	TOGGLE	F	Used for Stripping
SEQUENCER	TOGGLE	TRUE	Run as Sequence
PSTATMODEL	IQUANT	64	Pstat Model
PSTATSECTION	LABEL	IFC1010-36068	Pstat Section
PSTATSERIALNO	LABEL	36068	Pstat Serial Number
CTRLMODE	IQUANT	1	Control Mode
ELECTROMETER	IQUANT	0	RE=0 or CS=1
IESTAB	IQUANT	2	I/E Stability
CASPEED	IQUANT	4	Control Amp Speed
CONVENTION	IQUANT	1	Current Convention
ICHRANGE	IQUANT	2	Ich Range
ICHRANGEMODE	TOGGLE	F	Ich Auto Range
ICHOFFSETENABLE	TOGGLE	F	Ich Offset Enable
ICHOFFSET	QUANT	0	Ich Offset (V)
ICHFILTER	IQUANT	3	Ich Filter
VCHRANGE	IQUANT	2	Vch Range
VCHRANGEMODE	TOGGLE	F	Vch Auto Range
VCHOFFSETENABLE	TOGGLE	F	Vch Offset Enable
VCHOFFSET	QUANT	0	Vch Offset (V)
VCHFILTER	IQUANT	3	Vch Filter
IERANGELOWERLIMIT	IQUANT	4	I/E Range Lower Limit
IERANGEMODE	TOGGLE	F	I/E AutoRange
IERANGE	IQUANT	9	I/E Range
ACHSELECT	IQUANT	0	Ach Select
ACHRANGE	IQUANT	2	Ach Range
ACHOFFSETENABLE	TOGGLE	F	Ach Offset Enable
ACHOFFSET	QUANT	0	Ach Offset (V)
ACHFILTER	IQUANT	1	Ach Filter
SENSECABLEID	IQUANT	13	Sense Cable ID
PWRCABLEID	IQUANT	13	Power Cable ID
DCCALDATE	LABEL	8/11/2023	DC Calibration Date
ACCALDATE	LABEL	6/2/2023	AC Calibration Date
FRAMEWORKVERSION	LABEL	7.10.3	Framework Version
INSTRUMENTVERSION	LABEL	4.91	Instrument Version
COMMVERSION	LABEL	3.10	Communications Version
CPUPLDVERSION	LABEL	2.22	CPU PLD Version
CTRLPLDVERSION	LABEL	0.00	CTRL PLD Version
PSTATPLDVERSION	LABEL	0.00	PSTAT PLD Version
CURVE1	TABLE
	Pt	T	Vf	Im	Vu	Sig	Ach	IERange	Over	Temp
	#	s	V vs. Ref.	A	V	V	V	#	bits	deg C
	0	0.05	9.99937E-002	-8.80573E-006	0.00000E+000	1.00003E-001	0.00000E+000	9	...........	1467.52
	1	0.1	1.00979E-001	-8.22418E-006	0.00000E+000	1.01003E-001	0.00000E+000	9	...........	1467.52
	2	0.15	1.01976E-001	-8.06367E-006	0.00000E+000	1.02002E-001	0.00000E+000	9	...........	1467.52
	3	0.2	1.02994E-001	-7.91375E-006	0.00000E+000	1.03002E-001	0.00000E+000	9	...........	1467.52
	4	0.25	1.03997E-001	-7.78890E-006	0.00000E+000	1.04002E-001	0.00000E+000	9	...........	1467.64
	5	0.3	1.04969E-001	-7.66358E-006	0.00000E+000	1.05001E-001	0.00000E+000	9	...........	1467.88
	6	0.35	1.05971E-001	-7.55818E-006	0.00000E+000	1.06001E-001	0.00000E+000	9	...........	1467.88
	7	0.4	1.06973E-001	-7.43844E-006	0.00000E+000	1.07001E-001	0.00000E+000	9	...........	1467.88
	8	0.45	1.07981E-001	-7.33454E-006	0.00000E+000	1.08000E-001	0.00000E+000	9	...........	1467.88
	9	0.5	1.08985E-001	-7.22257E-006	0.00000E+000	1.09000E-001	0.00000E+000	9	...........	1467.88
	10	0.55	1.09984E-001	-7.12882E-006	0.00000E+000	1.10000E-001	0.00000E+000	9	...........	1467.88
	11	0.6	1.10978E-001	-7.01767E-006	0.00000E+000	1.10999E-001	0.00000E+000	9	...........	1467.88
	12	0.65	1.11975E-001	-6.92589E-006	0.00000E+000	1.11999E-001	0.00000E+000	9	...........	1467.88
	13	0.7	1.12960E-001	-6.81642E-006	0.00000E+000	1.12999E-001	0.00000E+000	9	...........	1467.88
	14	0.75	1.13957E-001	-6.72771E-006	0.00000E+000	1.13998E-001	0.00000E+000	9	...........	1467.88
	15	0.8	1.14977E-001	-6.62242E-006	0.00000E+000	1.14998E-001	0.00000E+000	9	...........	1467.88
	16	0.85	1.15992E-001	-6.54022E-006	0.00000E+000	1.15997E-001	0.00000E+000	9	...........	1467.88
	17	0.9	1.16983E-001	-6.44805E-006	0.00000E+000	1.16997E-001	0.00000E+000	9	...........	1467.88
	18	0.95	1.17981E-001	-6.36620E-006	0.00000E+000	1.17997E-001	0.00000E+000	9	...........	1467.88
	19	1	1.18981E-001	-6.27047E-006	0.00000E+000	1.18996E-001	0.00000E+000	9	...........	1467.88
	20	1.05	1.19982E-001	-6.19631E-006	0.00000E+000	1.19996E-001	0.00000E+000	9	...........	1467.88
	21	1.1	1.20973E-001	-6.10283E-006	0.00000E+000	1.20996E-001	0.00000E+000	9	...........	1467.88
	22	1.15	1.21979E-001	-6.03020E-006	0.00000E+000	1.21995E-001	0.00000E+000	9	...........	1467.88
	23	1.2	1.22962E-001	-5.94096E-006	0.00000E+000	1.22995E-001	0.00000E+000	9	...........	1467.88
	24	1.25	1.23961E-001	-5.86688E-006	0.00000E+000	1.23995E-001	0.00000E+000	9	...........	1467.88
	25	1.3	1.24969E-001	-5.78053E-006	0.00000E+000	1.24994E-001	0.00000E+000	9	...........	1467.88
	26	1.35	1.25965E-001	-5.71320E-006	0.00000E+000	1.25994E-001	0.00000E+000	9	...........	1467.88
	27	1.4	1.26983E-001	-5.62354E-006	0.00000E+000	1.27006E-001	0.00000E+000	9	...........	1467.88
	28	1.45	1.27994E-001	-5.55990E-006	0.00000E+000	1.28006E-001	0.00000E+000	9	...........	1467.88
	29	1.5	1.28991E-001	-5.47669E-006	0.00000E+000	1.29005E-001	0.00000E+000	9	...........	1467.88
	30	1.55	1.29989E-001	-5.41042E-006	0.00000E+000	1.30005E-001	0.00000E+000	9	...........	1467.88
	31	1.6	1.30996E-001	-5.33083E-006	0.00000E+000	1.31005E-001	0.00000E+000	9	...........	1467.88
	32	1.65	1.31996E-001	-5.26908E-006	0.00000E+000	1.32004E-001	0.00000E+000	9	...........	1467.88
	33	1.7	1.32997E-001	-5.18639E-006	0.00000E+000	1.33004E-001	0.00000E+000	9	...........	1467.88
	34	1.75	1.33991E-001	-5.13157E-006	0.00000E+000	1.34004E-001	0.00000E+000	9	...........	1467.88
	35	1.8	1.34992E-001	-5.05566E-006	0.00000E+000	1.35003E-001	0.00000E+000	9	...........	1467.88
	36	1.85	1.35987E-001	-4.99287E-006	0.00000E+000	1.36003E-001	0.00000E+000	9	...........	1467.88
	37	1.9	1.36978E-001	-4.91832E-006	0.00000E+000	1.37003E-001	0.00000E+000	9	...........	1467.88
	38	1.95	1.37983E-001	-4.86019E-006	0.00000E+000	1.38002E-001	0.00000E+000	9	...........	1467.88
	39	2	1.38979E-001	-4.78696E-006	0.00000E+000	1.39002E-001	0.00000E+000	9	...........	1467.88
	40	2.05	1.39975E-001	-4.72691E-006	0.00000E+000	1.40002E-001	0.00000E+000	9	...........	1467.88
	41	2.1	1.40999E-001	-4.65379E-006	0.00000E+000	1.41001E-001	0.00000E+000	9	...........	1467.88
	42	2.15	1.41991E-001	-4.59594E-006	0.00000E+000	1.42001E-001	0.00000E+000	9	...........	1467.88
	43	2.2	1.42989E-001	-4.52629E-006	0.00000E+000	1.43001E-001	0.00000E+000	9	...........	1467.88
	44	2.25	1.43981E-001	-4.46928E-006	0.00000E+000	1.44000E-001	0.00000E+000	9	...........	1467.88
	45	2.3	1.44975E-001	-4.39699E-006	0.00000E+000	1.45000E-001	0.00000E+000	9	...........	1467.88
	46	2.35	1.45975E-001	-4.34387E-006	0.00000E+000	1.46000E-001	0.00000E+000	9	...........	1467.88
	47	2.4	1.46985E-001	-4.27397E-006	0.00000E+000	1.46999E-001	0.00000E+000	9	...........	1467.88
	48	2.45	1.47984E-001	-4.21912E-006	0.00000E+000	1.47999E-001	0.00000E+000	9	...........	1467.88
	49	2.5	1.48973E-001	-4.15382E-006	0.00000E+000	1.48998E-001	0.00000E+000	9	...........	1467.88
	50	2.55	1.49966E-001	-4.10962E-006	0.00000E+000	1.49998E-001	0.00000E+000	9	...........	1467.88
	51	2.6	1.50966E-001	-4.03824E-006	0.00000E+000	1.50998E-001	0.00000E+000	9	...........	1467.88
	52	2.65	1.51968E-001	-3.98525E-006	0.00000E+000	1.51997E-001	0.00000E+000	9	...........	1467.88
	53	2.7	1.52960E-001	-3.91249E-006	0.00000E+000	1.52997E-001	0.00000E+000	9	...........	1467.88
	54	2.75	1.53970E-001	-3.85732E-006	0.00000E+000	1.53997E-001	0.00000E+000	9	...........	1467.88
	55	2.8	1.54976E-001	-3.79302E-006	0.00000E+000	1.54996E-001	0.00000E+000	9	...........	1467.88
	56	2.85	1.55985E-001	-3.74220E-006	0.00000E+000	1.55996E-001	0.00000E+000	9	...........	1467.88
	57	2.9	1.56990E-001	-3.67556E-006	0.00000E+000	1.56996E-001	0.00000E+000	9	...........	1467.88
	58	2.95	1.57985E-001	-3.62642E-006	0.00000E+000	1.57995E-001	0.00000E+000	9	...........	1467.88
	59	3	1.58969E-001	-3.55824E-006	0.00000E+000	1.58995E-001	0.00000E+000	9	...........	1467.88
	60	3.05	1.59977E-001	-3.50897E-006	0.00000E+000	1.59995E-001	0.00000E+000	9	...........	1467.88
	61	3.1	1.60965E-001	-3.44632E-006	0.00000E+000	1.60994E-001	0.00000E+000	9	...........	1467.88
	62	3.15	1.61962E-001	-3.39698E-006	0.00000E+000	1.61994E-001	0.00000E+000	9	...........	1467.88
	63	3.2	1.62974E-001	-3.33010E-006	0.00000E+000	1.63006E-001	0.00000E+000	9	...........	1467.88
	64	3.25	1.63990E-001	-3.28643E-006	0.00000E+000	1.64006E-001	0.00000E+000	9	...........	1467.85
	65	3.3	1.64974E-001	-3.21837E-006	0.00000E+000	1.65005E-001	0.00000E+000	9	...........	1467.79
	66	3.35	1.65962E-001	-3.17101E-006	0.00000E+000	1.66005E-001	0.00000E+000	9	...........	1467.79
	67	3.4	1.66993E-001	-3.10592E-006	0.00000E+000	1.67005E-001	0.00000E+000	9	...........	1467.79
	68	3.45	1.67989E-001	-3.05801E-006	0.00000E+000	1.68004E-001	0.00000E+000	9	...........	1467.79
	69	3.5	1.68988E-001	-2.99567E-006	0.00000E+000	1.69004E-001	0.00000E+000	9	...........	1467.79
	70	3.55	1.69991E-001	-2.95150E-006	0.00000E+000	1.70004E-001	0.00000E+000	9	...........	1467.79
	71	3.6	1.70983E-001	-2.89245E-006	0.00000E+000	1.71003E-001	0.00000E+000	9	...........	1467.79
	72	3.65	1.71980E-001	-2.84139E-006	0.00000E+000	1.72003E-001	0.00000E+000	9	...........	1467.79
	73	3.7	1.72981E-001	-2.78253E-006	0.00000E+000	1.73003E-001	0.00000E+000	9	...........	1467.79
	74	3.75	1.73975E-001	-2.73657E-006	0.00000E+000	1.74002E-001	0.00000E+000	9	...........	1467.79
	75	3.8	1.74976E-001	-2.67601E-006	0.00000E+000	1.75002E-001	0.00000E+000	9	...........	1467.79
	76	3.85	1.75984E-001	-2.62745E-006	0.00000E+000	1.76002E-001	0.00000E+000	9	...........	1467.79
	77	3.9	1.76973E-001	-2.56430E-006	0.00000E+000	1.77001E-001	0.00000E+000	9	...........	1467.79
	78	3.95	1.77970E-001	-2.52153E-006	0.00000E+000	1.78001E-001	0.00000E+000	9	...........	1467.79
	79	4	1.78971E-001	-2.46460E-006	0.00000E+000	1.79000E-001	0.00000E+000	9	...........	1467.79
	80	4.05	1.79977E-001	-2.42011E-006	0.00000E+000	1.80000E-001	0.00000E+000	9	...........	1467.79
	81	4.1	1.80983E-001	-2.35622E-006	0.00000E+000	1.81000E-001	0.00000E+000	9	...........	1467.79
	82	4.15	1.81986E-001	-2.31413E-006	0.00000E+000	1.81999E-001	0.00000E+000	9	...........	1467.79
	83	4.2	1.82981E-001	-2.25409E-006	0.00000E+000	1.82999E-001	0.00000E+000	9	...........	1467.79
	84	4.25	1.83988E-001	-2.20961E-006	0.00000E+000	1.83999E-001	0.00000E+000	9	...........	1467.76
	85	4.3	1.84975E-001	-2.15351E-006	0.00000E+000	1.84998E-001	0.00000E+000	9	...........	1467.70
	86	4.35	1.85979E-001	-2.10953E-006	0.00000E+000	1.85998E-001	0.00000E+000	9	...........	1467.70
	87	4.4	1.86978E-001	-2.04687E-006	0.00000E+000	1.86998E-001	0.00000E+000	9	...........	1467.70
	88	4.45	1.87977E-001	-1.99838E-006	0.00000E+000	1.87997E-001	0.00000E+000	9	...........	1467.70
	89	4.5	1.88968E-001	-1.94669E-006	0.00000E+000	1.88997E-001	0.00000E+000	9	...........	1467.70
	90	4.55	1.89970E-001	-1.90806E-006	0.00000E+000	1.89997E-001	0.00000E+000	9	...........	1467.70
	91	4.6	1.90968E-001	-1.85237E-006	0.00000E+000	1.90996E-001	0.00000E+000	9	...........	1467.70
	92	4.65	1.91998E-001	-1.80700E-006	0.00000E+000	1.91996E-001	0.00000E+000	9	...........	1467.70
	93	4.7	1.92987E-001	-1.74934E-006	0.00000E+000	1.92996E-001	0.00000E+000	9	...........	1467.70
	94	4.75	1.93985E-001	-1.70202E-006	0.00000E+000	1.93995E-001	0.00000E+000	9	...........	1467.70
	95	4.8	1.94981E-001	-1.64702E-006	0.00000E+000	1.94995E-001	0.00000E+000	9	...........	1467.70
	96	4.85	1.95983E-001	-1.60337E-006	0.00000E+000	1.95995E-001	0.00000E+000	9	...........	1467.70
	97	4.9	1.96979E-001	-1.54772E-006	0.00000E+000	1.96994E-001	0.00000E+000	9	...........	1467.70
	98	4.95	1.97970E-001	-1.50590E-006	0.00000E+000	1.97994E-001	0.00000E+000	9	...........	1467.70
	99	5	1.98996E-001	-1.44959E-006	0.00000E+000	1.99006E-001	0.00000E+000	9	...........	1467.70
	100	5.05	1.99988E-001	-1.42026E-006	0.00000E+000	2.00006E-001	0.00000E+000	9	...........	1467.70
	101	5.1	2.00972E-001	-1.36157E-006	0.00000E+000	2.01005E-001	0.00000E+000	9	...........	1467.70
	102	5.15	2.01972E-001	-1.32316E-006	0.00000E+000	2.02005E-001	0.00000E+000	9	...........	1467.70
	103	5.2	2.02977E-001	-1.27078E-006	0.00000E+000	2.03005E-001	0.00000E+000	9	...........	1467.70
	104	5.25	2.03973E-001	-1.22757E-006	0.00000E+000	2.04004E-001	0.00000E+000	9	...........	1467.67
	105	5.3	2.04989E-001	-1.17563E-006	0.00000E+000	2.05004E-001	0.00000E+000	9	...........	1467.61
	106	5.35	2.05985E-001	-1.13620E-006	0.00000E+000	2.06004E-001	0.00000E+000	9	...........	1467.61
	107	5.4	2.06976E-001	-1.08806E-006	0.00000E+000	2.07003E-001	0.00000E+000	9	...........	1467.61
	108	5.45	2.07979E-001	-1.04534E-006	0.00000E+000	2.08003E-001	0.00000E+000	9	...........	1467.61
	109	5.5	2.08979E-001	-9.92178E-007	0.00000E+000	2.09003E-001	0.00000E+000	9	...........	1467.61
	110	5.55	2.09973E-001	-9.55426E-007	0.00000E+000	2.10002E-001	0.00000E+000	9	...........	1467.61
	111	5.6	2.10973E-001	-9.06635E-007	0.00000E+000	2.11002E-001	0.00000E+000	9	...........	1467.61
	112	5.65	2.11978E-001	-8.69816E-007	0.00000E+000	2.12001E-001	0.00000E+000	9	...........	1467.61
	113	5.7	2.12968E-001	-8.16044E-007	0.00000E+000	2.13001E-001	0.00000E+000	9	...........	1467.61
	114	5.75	2.13963E-001	-7.82760E-007	0.00000E+000	2.14001E-001	0.00000E+000	9	...........	1467.61
	115	5.8	2.14966E-001	-7.42161E-007	0.00000E+000	2.15000E-001	0.00000E+000	9	...........	1467.61
	116	5.85	2.15964E-001	-7.05587E-007	0.00000E+000	2.16000E-001	0.00000E+000	9	...........	1467.61
	117	5.9	2.16963E-001	-6.56629E-007	0.00000E+000	2.17000E-001	0.00000E+000	9	...........	1467.61
	118	5.95	2.17990E-001	-6.22022E-007	0.00000E+000	2.17999E-001	0.00000E+000	9	...........	1467.61
	119	6	2.18972E-001	-5.75865E-007	0.00000E+000	2.18999E-001	0.00000E+000	9	...........	1467.61
	120	6.05	2.19968E-001	-5.41759E-007	0.00000E+000	2.19999E-001	0.00000E+000	9	...........	1467.61
	121	6.1	2.20974E-001	-4.92800E-007	0.00000E+000	2.20998E-001	0.00000E+000	9	...........	1467.61
	122	6.15	2.21972E-001	-4.58349E-007	0.00000E+000	2.21998E-001	0.00000E+000	9	...........	1467.61
	123	6.2	2.22970E-001	-4.14771E-007	0.00000E+000	2.22998E-001	0.00000E+000	9	...........	1467.61
	124	6.25	2.23971E-001	-3.83189E-007	0.00000E+000	2.23997E-001	0.00000E+000	9	...........	1467.55
	125	6.3	2.24962E-001	-3.40678E-007	0.00000E+000	2.24997E-001	0.00000E+000	9	...........	1467.43
	126	6.35	2.25960E-001	-3.10540E-007	0.00000E+000	2.25997E-001	0.00000E+000	9	...........	1467.43
	127	6.4	2.26956E-001	-2.69475E-007	0.00000E+000	2.26996E-001	0.00000E+000	9	...........	1467.43
	128	6.45	2.27960E-001	-2.41505E-007	0.00000E+000	2.27996E-001	0.00000E+000	9	...........	1467.43
	129	6.5	2.28964E-001	-1.93792E-007	0.00000E+000	2.28996E-001	0.00000E+000	9	...........	1467.43
	130	6.55	2.29958E-001	-1.63131E-007	0.00000E+000	2.29995E-001	0.00000E+000	9	...........	1467.43
	131	6.6	2.30965E-001	-1.25479E-007	0.00000E+000	2.30995E-001	0.00000E+000	9	...........	1467.43
	132	6.65	2.31975E-001	-9.15725E-008	0.00000E+000	2.31994E-001	0.00000E+000	9	...........	1467.43
	133	6.7	2.32969E-001	-5.36530E-008	0.00000E+000	2.32994E-001	0.00000E+000	9	...........	1467.43
	134	6.75	2.33970E-001	-1.74456E-008	0.00000E+000	2.33994E-001	0.00000E+000	9	...........	1467.43
	135	6.8	2.34977E-001	2.02515E-008	0.00000E+000	2.35006E-001	0.00000E+000	9	...........	1467.43
	136	6.85	2.35975E-001	4.73987E-008	0.00000E+000	2.36006E-001	0.00000E+000	9	...........	1467.43
	137	6.9	2.36982E-001	8.36617E-008	0.00000E+000	2.37005E-001	0.00000E+000	9	...........	1467.43
	138	6.95	2.37976E-001	1.12032E-007	0.00000E+000	2.38005E-001	0.00000E+000	9	...........	1467.43
	139	7	2.38975E-001	1.52208E-007	0.00000E+000	2.39005E-001	0.00000E+000	9	...........	1467.43
	140	7.05	2.39976E-001	1.81590E-007	0.00000E+000	2.40004E-001	0.00000E+000	9	...........	1467.43
	141	7.1	2.40961E-001	2.19954E-007	0.00000E+000	2.41004E-001	0.00000E+000	9	...........	1467.43
	142	7.15	2.41963E-001	2.48624E-007	0.00000E+000	2.42004E-001	0.00000E+000	9	...........	1467.43
	143	7.2	2.42977E-001	2.84042E-007	0.00000E+000	2.43003E-001	0.00000E+000	9	...........	1467.43
	144	7.25	2.43987E-001	3.15114E-007	0.00000E+000	2.44003E-001	0.00000E+000	9	...........	1467.60
	145	7.3	2.44981E-001	3.50765E-007	0.00000E+000	2.45002E-001	0.00000E+000	9	...........	1467.88
	146	7.35	2.45980E-001	3.76634E-007	0.00000E+000	2.46002E-001	0.00000E+000	9	...........	1467.88
	147	7.4	2.46974E-001	4.10629E-007	0.00000E+000	2.47002E-001	0.00000E+000	9	...........	1467.88
	148	7.45	2.47981E-001	4.41667E-007	0.00000E+000	2.48001E-001	0.00000E+000	9	...........	1467.88
	149	7.5	2.48973E-001	4.76029E-007	0.00000E+000	2.49001E-001	0.00000E+000	9	...........	1467.88
	150	7.55	2.49976E-001	5.04166E-007	0.00000E+000	2.50001E-001	0.00000E+000	9	...........	1467.88
	151	7.6	2.50975E-001	5.28823E-007	0.00000E+000	2.51000E-001	0.00000E+000	9	...........	1467.88
	152	7.65	2.51969E-001	5.55148E-007	0.00000E+000	2.52000E-001	0.00000E+000	9	...........	1467.88
	153	7.7	2.52962E-001	5.89966E-007	0.00000E+000	2.53000E-001	0.00000E+000	9	...........	1467.88
	154	7.75	2.53957E-001	6.15679E-007	0.00000E+000	2.53999E-001	0.00000E+000	9	...........	1467.88
	155	7.8	2.54954E-001	6.50408E-007	0.00000E+000	2.54999E-001	0.00000E+000	9	...........	1467.88
	156	7.85	2.55963E-001	6.79245E-007	0.00000E+000	2.55999E-001	0.00000E+000	9	...........	1467.88
	157	7.9	2.56974E-001	7.06737E-007	0.00000E+000	2.56998E-001	0.00000E+000	9	...........	1467.88
	158	7.95	2.57971E-001	7.34951E-007	0.00000E+000	2.57998E-001	0.00000E+000	9	...........	1467.88
	159	8	2.58968E-001	7.59864E-007	0.00000E+000	2.58998E-001	0.00000E+000	9	...........	1467.88
	160	8.05	2.59964E-001	7.87745E-007	0.00000E+000	2.59997E-001	0.00000E+000	9	...........	1467.88
	161	8.1	2.60961E-001	8.16693E-007	0.00000E+000	2.60997E-001	0.00000E+000	9	...........	1467.88
	162	8.15	2.61954E-001	8.40149E-007	0.00000E+000	2.61997E-001	0.00000E+000	9	...........	1467.88
	163	8.2	2.62958E-001	8.66930E-007	0.00000E+000	2.62996E-001	0.00000E+000	9	...........	1467.88
	164	8.25	2.63959E-001	8.93032E-007	0.00000E+000	2.63996E-001	0.00000E+000	9	...........	1467.92
	165	8.3	2.64957E-001	9.15255E-007	0.00000E+000	2.64995E-001	0.00000E+000	9	...........	1467.97
	166	8.35	2.65963E-001	9.48594E-007	0.00000E+000	2.65995E-001	0.00000E+000	9	...........	1467.97
	167	8.4	2.66950E-001	9.77564E-007	0.00000E+000	2.66995E-001	0.00000E+000	9	...........	1467.97
	168	8.45	2.67946E-001	1.00543E-006	0.00000E+000	2.67994E-001	0.00000E+000	9	...........	1467.97
	169	8.5	2.68981E-001	1.03008E-006	0.00000E+000	2.68994E-001	0.00000E+000	9	...........	1467.97
	170	8.55	2.69978E-001	1.06067E-006	0.00000E+000	2.69994E-001	0.00000E+000	9	...........	1467.97
	171	8.6	2.70983E-001	1.09455E-006	0.00000E+000	2.71006E-001	0.00000E+000	9	...........	1467.97
	172	8.65	2.71973E-001	1.11946E-006	0.00000E+000	2.72006E-001	0.00000E+000	9	...........	1467.97
	173	8.7	2.72973E-001	1.13952E-006	0.00000E+000	2.73005E-001	0.00000E+000	9	...........	1467.97
	174	8.75	2.73970E-001	1.16733E-006	0.00000E+000	2.74005E-001	0.00000E+000	9	...........	1467.97
	175	8.8	2.74971E-001	1.19103E-006	0.00000E+000	2.75004E-001	0.00000E+000	9	...........	1467.97
	176	8.85	2.75981E-001	1.21539E-006	0.00000E+000	2.76004E-001	0.00000E+000	9	...........	1467.97
	177	8.9	2.76977E-001	1.23682E-006	0.00000E+000	2.77004E-001	0.00000E+000	9	...........	1467.97
	178	8.95	2.77975E-001	1.27003E-006	0.00000E+000	2.78003E-001	0.00000E+000	9	...........	1467.97
	179	9	2.78966E-001	1.28986E-006	0.00000E+000	2.79003E-001	0.00000E+000	9	...........	1467.97
	180	9.05	2.79961E-001	1.31872E-006	0.00000E+000	2.80003E-001	0.00000E+000	9	...........	1467.97
	181	9.1	2.80955E-001	1.33977E-006	0.00000E+000	2.81002E-001	0.00000E+000	9	...........	1467.97
	182	9.15	2.81967E-001	1.36746E-006	0.00000E+000	2.82002E-001	0.00000E+000	9	...........	1467.97
	183	9.2	2.82978E-001	1.39190E-006	0.00000E+000	2.83002E-001	0.00000E+000	9	...........	1467.97
	184	9.25	2.83990E-001	1.42067E-006	0.00000E+000	2.84001E-001	0.00000E+000	9	...........	1467.80
	185	9.3	2.84979E-001	1.44182E-006	0.00000E+000	2.85001E-001	0.00000E+000	9	...........	1467.52
	186	9.35	2.85973E-001	1.47200E-006	0.00000E+000	2.86001E-001	0.00000E+000	9	...........	1467.52
	187	9.4	2.86974E-001	1.48873E-006	0.00000E+000	2.87000E-001	0.00000E+000	9	...........	1467.52
	188	9.45	2.87986E-001	1.51751E-006	0.00000E+000	2.88000E-001	0.00000E+000	9	...........	1467.52
	189	9.5	2.88981E-001	1.53099E-006	0.00000E+000	2.89000E-001	0.00000E+000	9	...........	1467.52
	190	9.55	2.89975E-001	1.56162E-006	0.00000E+000	2.89999E-001	0.00000E+000	9	...........	1467.52
	191	9.6	2.90962E-001	1.58301E-006	0.00000E+000	2.90999E-001	0.00000E+000	9	...........	1467.52
	192	9.65	2.91965E-001	1.61277E-006	0.00000E+000	2.91999E-001	0.00000E+000	9	...........	1467.52
	193	9.7	2.92961E-001	1.63558E-006	0.00000E+000	2.92998E-001	0.00000E+000	9	...........	1467.52
	194	9.75	2.93964E-001	1.66761E-006	0.00000E+000	2.93998E-001	0.00000E+000	9	...........	1467.52
	195	9.8	2.94996E-001	1.69143E-006	0.00000E+000	2.94998E-001	0.00000E+000	9	...........	1467.52
	196	9.85	2.95984E-001	1.71720E-006	0.00000E+000	2.95997E-001	0.00000E+000	9	...........	1467.52
	197	9.9	2.96975E-001	1.73874E-006	0.00000E+000	2.96997E-001	0.00000E+000	9	...........	1467.52
	198	9.95	2.97975E-001	1.76646E-006	0.00000E+000	2.97996E-001	0.00000E+000	9	...........	1467.52
	199	10	2.98970E-001	1.78653E-006	0.00000E+000	2.98996E-001	0.00000E+000	9	...........	1467.52
	200	10.05	2.99973E-001	1.81851E-006	0.00000E+000	2.99996E-001	0.00000E+000	9	...........	1467.52
	201	10.1	2.98982E-001	1.09056E-006	0.00000E+000	2.98996E-001	0.00000E+000	9	...........	1467.52
	202	10.15	2.97984E-001	9.76141E-007	0.00000E+000	2.97996E-001	0.00000E+000	9	...........	1467.52
	203	10.2	2.96979E-001	8.77257E-007	0.00000E+000	2.96997E-001	0.00000E+000	9	...........	1467.52
	204	10.25	2.95994E-001	8.01185E-007	0.00000E+000	2.95997E-001	0.00000E+000	9	...........	1467.52
	205	10.3	2.95003E-001	7.25713E-007	0.00000E+000	2.94998E-001	0.00000E+000	9	...........	1467.52
	206	10.35	2.93973E-001	6.66171E-007	0.00000E+000	2.93998E-001	0.00000E+000	9	...........	1467.52
	207	10.4	2.92966E-001	6.01472E-007	0.00000E+000	2.92998E-001	0.00000E+000	9	...........	1467.52
	208	10.45	2.91969E-001	5.50134E-007	0.00000E+000	2.91999E-001	0.00000E+000	9	...........	1467.52
	209	10.5	2.90964E-001	4.87669E-007	0.00000E+000	2.90999E-001	0.00000E+000	9	...........	1467.52
	210	10.55	2.89985E-001	4.34364E-007	0.00000E+000	2.89999E-001	0.00000E+000	9	...........	1467.52
	211	10.6	2.88988E-001	3.83749E-007	0.00000E+000	2.89000E-001	0.00000E+000	9	...........	1467.52
	212	10.65	2.87994E-001	3.30933E-007	0.00000E+000	2.88000E-001	0.00000E+000	9	...........	1467.52
	213	10.7	2.86983E-001	2.81385E-007	0.00000E+000	2.87000E-001	0.00000E+000	9	...........	1467.52
	214	10.75	2.85983E-001	2.39908E-007	0.00000E+000	2.86001E-001	0.00000E+000	9	...........	1467.52
	215	10.8	2.84987E-001	1.91328E-007	0.00000E+000	2.85001E-001	0.00000E+000	9	...........	1467.52
	216	10.85	2.83995E-001	1.51107E-007	0.00000E+000	2.84001E-001	0.00000E+000	9	...........	1467.52
	217	10.9	2.82980E-001	9.99590E-008	0.00000E+000	2.83002E-001	0.00000E+000	9	...........	1467.52
	218	10.95	2.81974E-001	5.92270E-008	0.00000E+000	2.82002E-001	0.00000E+000	9	...........	1467.52
	219	11	2.80961E-001	1.04131E-008	0.00000E+000	2.81002E-001	0.00000E+000	9	...........	1467.52
	220	11.05	2.79972E-001	-2.93851E-008	0.00000E+000	2.80003E-001	0.00000E+000	9	...........	1467.52
	221	11.1	2.78980E-001	-7.22626E-008	0.00000E+000	2.79003E-001	0.00000E+000	9	...........	1467.52
	222	11.15	2.77981E-001	-1.16118E-007	0.00000E+000	2.78003E-001	0.00000E+000	9	...........	1467.52
	223	11.2	2.76981E-001	-1.63687E-007	0.00000E+000	2.77004E-001	0.00000E+000	9	...........	1467.52
	224	11.25	2.75983E-001	-2.01251E-007	0.00000E+000	2.76004E-001	0.00000E+000	9	...........	1467.71
	225	11.3	2.74974E-001	-2.45118E-007	0.00000E+000	2.75004E-001	0.00000E+000	9	...........	1467.97
	226	11.35	2.73978E-001	-2.84160E-007	0.00000E+000	2.74005E-001	0.00000E+000	9	...........	1467.97
	227	11.4	2.72986E-001	-3.26193E-007	0.00000E+000	2.73005E-001	0.00000E+000	9	...........	1467.97
	228	11.45	2.71987E-001	-3.61967E-007	0.00000E+000	2.72006E-001	0.00000E+000	9	...........	1467.97
	229	11.5	2.70991E-001	-4.07290E-007	0.00000E+000	2.71006E-001	0.00000E+000	9	...........	1467.97
	230	11.55	2.69979E-001	-4.48122E-007	0.00000E+000	2.69994E-001	0.00000E+000	9	...........	1467.97
	231	11.6	2.68984E-001	-4.84140E-007	0.00000E+000	2.68994E-001	0.00000E+000	9	...........	1467.97
	232	11.65	2.67951E-001	-5.17057E-007	0.00000E+000	2.67994E-001	0.00000E+000	9	...........	1467.97
	233	11.7	2.66954E-001	-5.58645E-007	0.00000E+000	2.66995E-001	0.00000E+000	9	...........	1467.97
	234	11.75	2.65967E-001	-5.91317E-007	0.00000E+000	2.65995E-001	0.00000E+000	9	...........	1467.97
	235	11.8	2.64971E-001	-6.33962E-007	0.00000E+000	2.64995E-001	0.00000E+000	9	...........	1467.97
	236	11.85	2.63970E-001	-6.69524E-007	0.00000E+000	2.63996E-001	0.00000E+000	9	...........	1467.97
	237	11.9	2.62973E-001	-7.12735E-007	0.00000E+000	2.62996E-001	0.00000E+000	9	...........	1467.97
	238	11.95	2.61965E-001	-7.39404E-007	0.00000E+000	2.61997E-001	0.00000E+000	9	...........	1467.97
	239	12	2.60968E-001	-7.82549E-007	0.00000E+000	2.60997E-001	0.00000E+000	9	...........	1467.97
	240	12.05	2.59973E-001	-8.12131E-007	0.00000E+000	2.59997E-001	0.00000E+000	9	...........	1467.97
	241	12.1	2.58977E-001	-8.56064E-007	0.00000E+000	2.58998E-001	0.00000E+000	9	...........	1467.97
	242	12.15	2.57980E-001	-8.89281E-007	0.00000E+000	2.57998E-001	0.00000E+000	9	...........	1467.97
	243	12.2	2.56986E-001	-9.33882E-007	0.00000E+000	2.56998E-001	0.00000E+000	9	...........	1467.97
	244	12.25	2.55975E-001	-9.65554E-007	0.00000E+000	2.55999E-001	0.00000E+000	9	...........	1467.90
	245	12.3	2.54961E-001	-1.01264E-006	0.00000E+000	2.54999E-001	0.00000E+000	9	...........	1467.79
	246	12.35	2.53961E-001	-1.04294E-006	0.00000E+000	2.53999E-001	0.00000E+000	9	...........	1467.79
	247	12.4	2.52963E-001	-1.08446E-006	0.00000E+000	2.53000E-001	0.00000E+000	9	...........	1467.79
	248	12.45	2.51978E-001	-1.11708E-006	0.00000E+000	2.52000E-001	0.00000E+000	9	...........	1467.79
	249	12.5	2.50986E-001	-1.16219E-006	0.00000E+000	2.51000E-001	0.00000E+000	9	...........	1467.79
	250	12.55	2.49980E-001	-1.19404E-006	0.00000E+000	2.50001E-001	0.00000E+000	9	...........	1467.79
	251	12.6	2.48977E-001	-1.23908E-006	0.00000E+000	2.49001E-001	0.00000E+000	9	...........	1467.79
	252	12.65	2.47985E-001	-1.27231E-006	0.00000E+000	2.48001E-001	0.00000E+000	9	...........	1467.79
	253	12.7	2.46993E-001	-1.31744E-006	0.00000E+000	2.47002E-001	0.00000E+000	9	...........	1467.79
	254	12.75	2.45990E-001	-1.34745E-006	0.00000E+000	2.46002E-001	0.00000E+000	9	...........	1467.79
	255	12.8	2.44995E-001	-1.39512E-006	0.00000E+000	2.45002E-001	0.00000E+000	9	...........	1467.79
	256	12.85	2.43999E-001	-1.42928E-006	0.00000E+000	2.44003E-001	0.00000E+000	9	...........	1467.79
	257	12.9	2.43000E-001	-1.47727E-006	0.00000E+000	2.43003E-001	0.00000E+000	9	...........	1467.79
	258	12.95	2.41977E-001	-1.51270E-006	0.00000E+000	2.42004E-001	0.00000E+000	9	...........	1467.79
	259	13	2.40973E-001	-1.55832E-006	0.00000E+000	2.41004E-001	0.00000E+000	9	...........	1467.79
	260	13.05	2.39983E-001	-1.58709E-006	0.00000E+000	2.40004E-001	0.00000E+000	9	...........	1467.79
	261	13.1	2.38979E-001	-1.63506E-006	0.00000E+000	2.39005E-001	0.00000E+000	9	...........	1467.79
	262	13.15	2.37985E-001	-1.66933E-006	0.00000E+000	2.38005E-001	0.00000E+000	9	...........	1467.79
	263	13.2	2.36989E-001	-1.72334E-006	0.00000E+000	2.37005E-001	0.00000E+000	9	...........	1467.79
	264	13.25	2.35981E-001	-1.75556E-006	0.00000E+000	2.36006E-001	0.00000E+000	9	...........	1467.64
	265	13.3	2.34981E-001	-1.80646E-006	0.00000E+000	2.35006E-001	0.00000E+000	9	...........	1467.43
	266	13.35	2.33984E-001	-1.84918E-006	0.00000E+000	2.33994E-001	0.00000E+000	9	...........	1467.43
	267	13.4	2.32983E-001	-1.89629E-006	0.00000E+000	2.32994E-001	0.00000E+000	9	...........	1467.43
	268	13.45	2.31985E-001	-1.93422E-006	0.00000E+000	2.31994E-001	0.00000E+000	9	...........	1467.43
	269	13.5	2.30982E-001	-1.98322E-006	0.00000E+000	2.30995E-001	0.00000E+000	9	...........	1467.43
	270	13.55	2.29967E-001	-2.01914E-006	0.00000E+000	2.29995E-001	0.00000E+000	9	...........	1467.43
	271	13.6	2.28977E-001	-2.07068E-006	0.00000E+000	2.28996E-001	0.00000E+000	9	...........	1467.43
	272	13.65	2.27978E-001	-2.10815E-006	0.00000E+000	2.27996E-001	0.00000E+000	9	...........	1467.43
	273	13.7	2.26971E-001	-2.16359E-006	0.00000E+000	2.26996E-001	0.00000E+000	9	...........	1467.43
	274	13.75	2.25970E-001	-2.20145E-006	0.00000E+000	2.25997E-001	0.00000E+000	9	...........	1467.43
	275	13.8	2.24968E-001	-2.25435E-006	0.00000E+000	2.24997E-001	0.00000E+000	9	...........	1467.43
	276	13.85	2.23980E-001	-2.28712E-006	0.00000E+000	2.23997E-001	0.00000E+000	9	...........	1467.43
	277	13.9	2.22977E-001	-2.34001E-006	0.00000E+000	2.22998E-001	0.00000E+000	9	...........	1467.43
	278	13.95	2.21975E-001	-2.38421E-006	0.00000E+000	2.21998E-001	0.00000E+000	9	...........	1467.43
	279	14	2.20982E-001	-2.44177E-006	0.00000E+000	2.20998E-001	0.00000E+000	9	...........	1467.43
	280	14.05	2.19987E-001	-2.48594E-006	0.00000E+000	2.19999E-001	0.00000E+000	9	...........	1467.43
	281	14.1	2.18987E-001	-2.54147E-006	0.00000E+000	2.18999E-001	0.00000E+000	9	...........	1467.43
	282	14.15	2.17999E-001	-2.57702E-006	0.00000E+000	2.17999E-001	0.00000E+000	9	...........	1467.43
	283	14.2	2.16973E-001	-2.63786E-006	0.00000E+000	2.17000E-001	0.00000E+000	9	...........	1467.43
	284	14.25	2.15975E-001	-2.67664E-006	0.00000E+000	2.16000E-001	0.00000E+000	9	...........	1467.66
	285	14.3	2.14975E-001	-2.73427E-006	0.00000E+000	2.15000E-001	0.00000E+000	9	...........	1467.97
	286	14.35	2.13969E-001	-2.77925E-006	0.00000E+000	2.14001E-001	0.00000E+000	9	...........	1467.97
	287	14.4	2.12973E-001	-2.83749E-006	0.00000E+000	2.13001E-001	0.00000E+000	9	...........	1467.97
	288	14.45	2.11983E-001	-2.87922E-006	0.00000E+000	2.12001E-001	0.00000E+000	9	...........	1467.97
	289	14.5	2.10973E-001	-2.94197E-006	0.00000E+000	2.11002E-001	0.00000E+000	9	...........	1467.97
	290	14.55	2.09975E-001	-2.98438E-006	0.00000E+000	2.10002E-001	0.00000E+000	9	...........	1467.97
	291	14.6	2.08981E-001	-3.04710E-006	0.00000E+000	2.09003E-001	0.00000E+000	9	...........	1467.97
	292	14.65	2.07981E-001	-3.09164E-006	0.00000E+000	2.08003E-001	0.00000E+000	9	...........	1467.97
	293	14.7	2.06976E-001	-3.14853E-006	0.00000E+000	2.07003E-001	0.00000E+000	9	...........	1467.97
	294	14.75	2.05996E-001	-3.19283E-006	0.00000E+000	2.06004E-001	0.00000E+000	9	...........	1467.97
	295	14.8	2.04995E-001	-3.26224E-006	0.00000E+000	2.05004E-001	0.00000E+000	9	...........	1467.97
	296	14.85	2.03982E-001	-3.30759E-006	0.00000E+000	2.04004E-001	0.00000E+000	9	...........	1467.97
	297	14.9	2.02990E-001	-3.36761E-006	0.00000E+000	2.03005E-001	0.00000E+000	9	...........	1467.97
	298	14.95	2.01985E-001	-3.41700E-006	0.00000E+000	2.02005E-001	0.00000E+000	9	...........	1467.97
	299	15	2.00986E-001	-3.48191E-006	0.00000E+000	2.01005E-001	0.00000E+000	9	...........	1467.97
	300	15.05	2.00000E-001	-3.52903E-006	0.00000E+000	2.00006E-001	0.00000E+000	9	...........	1467.97
	301	15.1	1.99008E-001	-3.59333E-006	0.00000E+000	1.99006E-001	0.00000E+000	9	...........	1467.97
	302	15.15	1.97981E-001	-3.65089E-006	0.00000E+000	1.97994E-001	0.00000E+000	9	...........	1467.97
	303	15.2	1.96982E-001	-3.70943E-006	0.00000E+000	1.96994E-001	0.00000E+000	9	...........	1467.97
	304	15.25	1.95990E-001	-3.76141E-006	0.00000E+000	1.95995E-001	0.00000E+000	9	...........	1467.97
	305	15.3	1.94990E-001	-3.82542E-006	0.00000E+000	1.94995E-001	0.00000E+000	9	...........	1467.97
	306	15.35	1.93998E-001	-3.87244E-006	0.00000E+000	1.93995E-001	0.00000E+000	9	...........	1467.97
	307	15.4	1.93007E-001	-3.93783E-006	0.00000E+000	1.92996E-001	0.00000E+000	9	...........	1467.97
	308	15.45	1.92010E-001	-3.98975E-006	0.00000E+000	1.91996E-001	0.00000E+000	9	...........	1467.97
	309	15.5	1.90980E-001	-4.05708E-006	0.00000E+000	1.90996E-001	0.00000E+000	9	...........	1467.97
	310	15.55	1.89975E-001	-4.10840E-006	0.00000E+000	1.89997E-001	0.00000E+000	9	...........	1467.97
	311	15.6	1.88976E-001	-4.17588E-006	0.00000E+000	1.88997E-001	0.00000E+000	9	...........	1467.97
	312	15.65	1.87987E-001	-4.22531E-006	0.00000E+000	1.87997E-001	0.00000E+000	9	...........	1467.97
	313	15.7	1.86988E-001	-4.29662E-006	0.00000E+000	1.86998E-001	0.00000E+000	9	...........	1467.97
	314	15.75	1.85992E-001	-4.34427E-006	0.00000E+000	1.85998E-001	0.00000E+000	9	...........	1467.97
	315	15.8	1.84992E-001	-4.41729E-006	0.00000E+000	1.84998E-001	0.00000E+000	9	...........	1467.97
	316	15.85	1.83994E-001	-4.47216E-006	0.00000E+000	1.83999E-001	0.00000E+000	9	...........	1467.97
	317	15.9	1.82995E-001	-4.53933E-006	0.00000E+000	1.82999E-001	0.00000E+000	9	...........	1467.97
	318	15.95	1.81994E-001	-4.58967E-006	0.00000E+000	1.81999E-001	0.00000E+000	9	...........	1467.97
	319	16	1.80992E-001	-4.65513E-006	0.00000E+000	1.81000E-001	0.00000E+000	9	...........	1467.97
	320	16.05	1.79981E-001	-4.70865E-006	0.00000E+000	1.80000E-001	0.00000E+000	9	...........	1467.97
	321	16.1	1.78969E-001	-4.77558E-006	0.00000E+000	1.79000E-001	0.00000E+000	9	...........	1467.97
	322	16.15	1.77978E-001	-4.82926E-006	0.00000E+000	1.78001E-001	0.00000E+000	9	...........	1467.97
	323	16.2	1.76983E-001	-4.89941E-006	0.00000E+000	1.77001E-001	0.00000E+000	9	...........	1467.97
	324	16.25	1.75991E-001	-4.95290E-006	0.00000E+000	1.76002E-001	0.00000E+000	9	...........	1467.82
	325	16.3	1.74983E-001	-5.01975E-006	0.00000E+000	1.75002E-001	0.00000E+000	9	...........	1467.61
	326	16.35	1.73991E-001	-5.07255E-006	0.00000E+000	1.74002E-001	0.00000E+000	9	...........	1467.61
	327	16.4	1.72993E-001	-5.14041E-006	0.00000E+000	1.73003E-001	0.00000E+000	9	...........	1467.61
	328	16.45	1.71985E-001	-5.19250E-006	0.00000E+000	1.72003E-001	0.00000E+000	9	...........	1467.61
	329	16.5	1.70987E-001	-5.26068E-006	0.00000E+000	1.71003E-001	0.00000E+000	9	...........	1467.61
	330	16.55	1.69998E-001	-5.31122E-006	0.00000E+000	1.70004E-001	0.00000E+000	9	...........	1467.61
	331	16.6	1.68997E-001	-5.37696E-006	0.00000E+000	1.69004E-001	0.00000E+000	9	...........	1467.61
	332	16.65	1.68000E-001	-5.42796E-006	0.00000E+000	1.68004E-001	0.00000E+000	9	...........	1467.61
	333	16.7	1.67004E-001	-5.49709E-006	0.00000E+000	1.67005E-001	0.00000E+000	9	...........	1467.61
	334	16.75	1.65971E-001	-5.54957E-006	0.00000E+000	1.66005E-001	0.00000E+000	9	...........	1467.61
	335	16.8	1.64972E-001	-5.61581E-006	0.00000E+000	1.65005E-001	0.00000E+000	9	...........	1467.61
	336	16.85	1.63988E-001	-5.66783E-006	0.00000E+000	1.64006E-001	0.00000E+000	9	...........	1467.61
	337	16.9	1.62977E-001	-5.73818E-006	0.00000E+000	1.63006E-001	0.00000E+000	9	...........	1467.61
	338	16.95	1.61970E-001	-5.79130E-006	0.00000E+000	1.61994E-001	0.00000E+000	9	...........	1467.61
	339	17	1.60980E-001	-5.85874E-006	0.00000E+000	1.60994E-001	0.00000E+000	9	...........	1467.61
	340	17.05	1.59981E-001	-5.91148E-006	0.00000E+000	1.59995E-001	0.00000E+000	9	...........	1467.61
	341	17.1	1.58973E-001	-5.98207E-006	0.00000E+000	1.58995E-001	0.00000E+000	9	...........	1467.61
	342	17.15	1.57989E-001	-6.03543E-006	0.00000E+000	1.57995E-001	0.00000E+000	9	...........	1467.61
	343	17.2	1.56991E-001	-6.10004E-006	0.00000E+000	1.56996E-001	0.00000E+000	9	...........	1467.61
	344	17.25	1.55981E-001	-6.15345E-006	0.00000E+000	1.55996E-001	0.00000E+000	9	...........	1467.53
	345	17.3	1.54985E-001	-6.21893E-006	0.00000E+000	1.54996E-001	0.00000E+000	9	...........	1467.43
	346	17.35	1.53971E-001	-6.27196E-006	0.00000E+000	1.53997E-001	0.00000E+000	9	...........	1467.43
	347	17.4	1.52965E-001	-6.33623E-006	0.00000E+000	1.52997E-001	0.00000E+000	9	...........	1467.43
	348	17.45	1.51975E-001	-6.39152E-006	0.00000E+000	1.51997E-001	0.00000E+000	9	...........	1467.43
	349	17.5	1.50974E-001	-6.45905E-006	0.00000E+000	1.50998E-001	0.00000E+000	9	...........	1467.43
	350	17.55	1.49971E-001	-6.50792E-006	0.00000E+000	1.49998E-001	0.00000E+000	9	...........	1467.43
	351	17.6	1.48980E-001	-6.57778E-006	0.00000E+000	1.48998E-001	0.00000E+000	9	...........	1467.43
	352	17.65	1.47992E-001	-6.62631E-006	0.00000E+000	1.47999E-001	0.00000E+000	9	...........	1467.43
	353	17.7	1.46988E-001	-6.69658E-006	0.00000E+000	1.46999E-001	0.00000E+000	9	...........	1467.43
	354	17.75	1.45980E-001	-6.75014E-006	0.00000E+000	1.46000E-001	0.00000E+000	9	...........	1467.43
	355	17.8	1.44987E-001	-6.81960E-006	0.00000E+000	1.45000E-001	0.00000E+000	9	...........	1467.43
	356	17.85	1.43995E-001	-6.86664E-006	0.00000E+000	1.44000E-001	0.00000E+000	9	...........	1467.43
	357	17.9	1.43005E-001	-6.93470E-006	0.00000E+000	1.43001E-001	0.00000E+000	9	...........	1467.43
	358	17.95	1.42001E-001	-6.98998E-006	0.00000E+000	1.42001E-001	0.00000E+000	9	...........	1467.43
	359	18	1.41009E-001	-7.05490E-006	0.00000E+000	1.41001E-001	0.00000E+000	9	...........	1467.43
	360	18.05	1.39986E-001	-7.10782E-006	0.00000E+000	1.40002E-001	0.00000E+000	9	...........	1467.43
	361	18.1	1.38992E-001	-7.18400E-006	0.00000E+000	1.39002E-001	0.00000E+000	9	...........	1467.43
	362	18.15	1.37990E-001	-7.23916E-006	0.00000E+000	1.38002E-001	0.00000E+000	9	...........	1467.43
	363	18.2	1.36985E-001	-7.30650E-006	0.00000E+000	1.37003E-001	0.00000E+000	9	...........	1467.43
	364	18.25	1.35993E-001	-7.35587E-006	0.00000E+000	1.36003E-001	0.00000E+000	9	...........	1467.64
	365	18.3	1.34986E-001	-7.42681E-006	0.00000E+000	1.35003E-001	0.00000E+000	9	...........	1467.88
	366	18.35	1.33988E-001	-7.48284E-006	0.00000E+000	1.34004E-001	0.00000E+000	9	...........	1467.88
	367	18.4	1.32999E-001	-7.54825E-006	0.00000E+000	1.33004E-001	0.00000E+000	9	...........	1467.88
	368	18.45	1.32007E-001	-7.60506E-006	0.00000E+000	1.32004E-001	0.00000E+000	9	...........	1467.88
	369	18.5	1.31009E-001	-7.68202E-006	0.00000E+000	1.31005E-001	0.00000E+000	9	...........	1467.88
	370	18.55	1.30007E-001	-7.73411E-006	0.00000E+000	1.30005E-001	0.00000E+000	9	...........	1467.88
	371	18.6	1.29009E-001	-7.80708E-006	0.00000E+000	1.29005E-001	0.00000E+000	9	...........	1467.88
	372	18.65	1.28005E-001	-7.86124E-006	0.00000E+000	1.28006E-001	0.00000E+000	9	...........	1467.88
	373	18.7	1.26984E-001	-7.93091E-006	0.00000E+000	1.27006E-001	0.00000E+000	9	...........	1467.88
	374	18.75	1.25978E-001	-7.99493E-006	0.00000E+000	1.25994E-001	0.00000E+000	9	...........	1467.88
	375	18.8	1.24980E-001	-8.06357E-006	0.00000E+000	1.24994E-001	0.00000E+000	9	...........	1467.88
	376	18.85	1.23972E-001	-8.12590E-006	0.00000E+000	1.23995E-001	0.00000E+000	9	...........	1467.88
	377	18.9	1.22981E-001	-8.20265E-006	0.00000E+000	1.22995E-001	0.00000E+000	9	...........	1467.88
	378	18.95	1.21986E-001	-8.26287E-006	0.00000E+000	1.21995E-001	0.00000E+000	9	...........	1467.88
	379	19	1.20980E-001	-8.33568E-006	0.00000E+000	1.20996E-001	0.00000E+000	9	...........	1467.88
	380	19.05	1.19990E-001	-8.40120E-006	0.00000E+000	1.19996E-001	0.00000E+000	9	...........	1467.88
	381	19.1	1.18993E-001	-8.47717E-006	0.00000E+000	1.18996E-001	0.00000E+000	9	...........	1467.88
	382	19.15	1.17984E-001	-8.53272E-006	0.00000E+000	1.17997E-001	0.00000E+000	9	...........	1467.88
	383	19.2	1.16992E-001	-8.61080E-006	0.00000E+000	1.16997E-001	0.00000E+000	9	...........	1467.88
	384	19.25	1.16002E-001	-8.66960E-006	0.00000E+000	1.15997E-001	0.00000E+000	9	...........	1467.88
	385	19.3	1.14992E-001	-8.74512E-006	0.00000E+000	1.14998E-001	0.00000E+000	9	...........	1467.88
	386	19.35	1.13971E-001	-8.80983E-006	0.00000E+000	1.13998E-001	0.00000E+000	9	...........	1467.88
[...]
	1002	50.15	2.97988E-001	9.11608E-007	0.00000E+000	2.97996E-001	0.00000E+000	9	...........	1467.88
	1003	50.2	2.96984E-001	8.28232E-007	0.00000E+000	2.96997E-001	0.00000E+000	9	...........	1467.88
	1004	50.25	2.95991E-001	7.39687E-007	0.00000E+000	2.95997E-001	0.00000E+000	9	...........	1467.64
	1005	50.3	2.94993E-001	6.86404E-007	0.00000E+000	2.94998E-001	0.00000E+000	9	...........	1467.52
	1006	50.35	2.93965E-001	6.06963E-007	0.00000E+000	2.93998E-001	0.00000E+000	9	...........	1467.52
	1007	50.4	2.92969E-001	5.58850E-007	0.00000E+000	2.92998E-001	0.00000E+000	9	...........	1467.52
	1008	50.45	2.91972E-001	4.88102E-007	0.00000E+000	2.91999E-001	0.00000E+000	9	...........	1467.52
	1009	50.5	2.90966E-001	4.42512E-007	0.00000E+000	2.90999E-001	0.00000E+000	9	...........	1467.52
	1010	50.55	2.89980E-001	3.80558E-007	0.00000E+000	2.89999E-001	0.00000E+000	9	...........	1467.52
	1011	50.6	2.88982E-001	3.44084E-007	0.00000E+000	2.89000E-001	0.00000E+000	9	...........	1467.52
	1012	50.65	2.87988E-001	2.82375E-007	0.00000E+000	2.88000E-001	0.00000E+000	9	...........	1467.52
	1013	50.7	2.86980E-001	2.45100E-007	0.00000E+000	2.87000E-001	0.00000E+000	9	...........	1467.52
	1014	50.75	2.85986E-001	1.89983E-007	0.00000E+000	2.86001E-001	0.00000E+000	9	...........	1467.52
	1015	50.8	2.84989E-001	1.50641E-007	0.00000E+000	2.85001E-001	0.00000E+000	9	...........	1467.52
	1016	50.85	2.83993E-001	9.66240E-008	0.00000E+000	2.84001E-001	0.00000E+000	9	...........	1467.52
	1017	50.9	2.82986E-001	5.96383E-008	0.00000E+000	2.83002E-001	0.00000E+000	9	...........	1467.52
	1018	50.95	2.81983E-001	4.36557E-009	0.00000E+000	2.82002E-001	0.00000E+000	9	...........	1467.52
	1019	51	2.80969E-001	-2.98631E-008	0.00000E+000	2.81002E-001	0.00000E+000	9	...........	1467.52
	1020	51.05	2.79974E-001	-7.47972E-008	0.00000E+000	2.80003E-001	0.00000E+000	9	...........	1467.52
	1021	51.1	2.78974E-001	-1.11294E-007	0.00000E+000	2.79003E-001	0.00000E+000	9	...........	1467.52
	1022	51.15	2.77987E-001	-1.65421E-007	0.00000E+000	2.78003E-001	0.00000E+000	9	...........	1467.52
	1023	51.2	2.76987E-001	-1.98127E-007	0.00000E+000	2.77004E-001	0.00000E+000	9	...........	1467.52
	1024	51.25	2.75985E-001	-2.50076E-007	0.00000E+000	2.76004E-001	0.00000E+000	9	...........	1467.52
	1025	51.3	2.74982E-001	-2.79191E-007	0.00000E+000	2.75004E-001	0.00000E+000	9	...........	1467.52
	1026	51.35	2.73987E-001	-3.32174E-007	0.00000E+000	2.74005E-001	0.00000E+000	9	...........	1467.52
	1027	51.4	2.72984E-001	-3.61644E-007	0.00000E+000	2.73005E-001	0.00000E+000	9	...........	1467.52
	1028	51.45	2.71990E-001	-4.06445E-007	0.00000E+000	2.72006E-001	0.00000E+000	9	...........	1467.52
	1029	51.5	2.70997E-001	-4.31402E-007	0.00000E+000	2.71006E-001	0.00000E+000	9	...........	1467.52
	1030	51.55	2.69982E-001	-4.84151E-007	0.00000E+000	2.69994E-001	0.00000E+000	9	...........	1467.52
	1031	51.6	2.68991E-001	-5.09831E-007	0.00000E+000	2.68994E-001	0.00000E+000	9	...........	1467.52
	1032	51.65	2.67958E-001	-5.60557E-007	0.00000E+000	2.67994E-001	0.00000E+000	9	...........	1467.52
	1033	51.7	2.66955E-001	-5.84914E-007	0.00000E+000	2.66995E-001	0.00000E+000	9	...........	1467.52
	1034	51.75	2.65968E-001	-6.28436E-007	0.00000E+000	2.65995E-001	0.00000E+000	9	...........	1467.52
	1035	51.8	2.64979E-001	-6.56840E-007	0.00000E+000	2.64995E-001	0.00000E+000	9	...........	1467.52
	1036	51.85	2.63982E-001	-6.99306E-007	0.00000E+000	2.63996E-001	0.00000E+000	9	...........	1467.52
	1037	51.9	2.62973E-001	-7.29110E-007	0.00000E+000	2.62996E-001	0.00000E+000	9	...........	1467.52
	1038	51.95	2.61961E-001	-7.76257E-007	0.00000E+000	2.61997E-001	0.00000E+000	9	...........	1467.52
	1039	52	2.60969E-001	-8.05260E-007	0.00000E+000	2.60997E-001	0.00000E+000	9	...........	1467.52
	1040	52.05	2.59973E-001	-8.48149E-007	0.00000E+000	2.59997E-001	0.00000E+000	9	...........	1467.52
	1041	52.1	2.58973E-001	-8.80788E-007	0.00000E+000	2.58998E-001	0.00000E+000	9	...........	1467.52
	1042	52.15	2.57967E-001	-9.27745E-007	0.00000E+000	2.57998E-001	0.00000E+000	9	...........	1467.52
	1043	52.2	2.56971E-001	-9.54726E-007	0.00000E+000	2.56998E-001	0.00000E+000	9	...........	1467.52
	1044	52.25	2.55972E-001	-9.96214E-007	0.00000E+000	2.55999E-001	0.00000E+000	9	...........	1467.83
	1045	52.3	2.54968E-001	-1.02278E-006	0.00000E+000	2.54999E-001	0.00000E+000	9	...........	1467.97
	1046	52.35	2.53978E-001	-1.06828E-006	0.00000E+000	2.53999E-001	0.00000E+000	9	...........	1467.97
	1047	52.4	2.52976E-001	-1.09841E-006	0.00000E+000	2.53000E-001	0.00000E+000	9	...........	1467.97
	1048	52.45	2.51981E-001	-1.14007E-006	0.00000E+000	2.52000E-001	0.00000E+000	9	...........	1467.97
	1049	52.5	2.50981E-001	-1.17395E-006	0.00000E+000	2.51000E-001	0.00000E+000	9	...........	1467.97
	1050	52.55	2.49983E-001	-1.22144E-006	0.00000E+000	2.50001E-001	0.00000E+000	9	...........	1467.97
	1051	52.6	2.48975E-001	-1.24763E-006	0.00000E+000	2.49001E-001	0.00000E+000	9	...........	1467.97
	1052	52.65	2.47975E-001	-1.29053E-006	0.00000E+000	2.48001E-001	0.00000E+000	9	...........	1467.97
	1053	52.7	2.46982E-001	-1.31770E-006	0.00000E+000	2.47002E-001	0.00000E+000	9	...........	1467.97
	1054	52.75	2.45986E-001	-1.36422E-006	0.00000E+000	2.46002E-001	0.00000E+000	9	...........	1467.97
	1055	52.8	2.44986E-001	-1.39192E-006	0.00000E+000	2.45002E-001	0.00000E+000	9	...........	1467.97
	1056	52.85	2.43995E-001	-1.44182E-006	0.00000E+000	2.44003E-001	0.00000E+000	9	...........	1467.97
	1057	52.9	2.42987E-001	-1.46955E-006	0.00000E+000	2.43003E-001	0.00000E+000	9	...........	1467.97
	1058	52.95	2.41984E-001	-1.52135E-006	0.00000E+000	2.42004E-001	0.00000E+000	9	...........	1467.97
	1059	53	2.40981E-001	-1.55663E-006	0.00000E+000	2.41004E-001	0.00000E+000	9	...........	1467.97
	1060	53.05	2.39993E-001	-1.60050E-006	0.00000E+000	2.40004E-001	0.00000E+000	9	...........	1467.97
	1061	53.1	2.38981E-001	-1.63143E-006	0.00000E+000	2.39005E-001	0.00000E+000	9	...........	1467.97
	1062	53.15	2.37979E-001	-1.67684E-006	0.00000E+000	2.38005E-001	0.00000E+000	9	...........	1467.97
	1063	53.2	2.36984E-001	-1.71165E-006	0.00000E+000	2.37005E-001	0.00000E+000	9	...........	1467.97
	1064	53.25	2.35981E-001	-1.76304E-006	0.00000E+000	2.36006E-001	0.00000E+000	9	...........	1467.85
	1065	53.3	2.34991E-001	-1.79190E-006	0.00000E+000	2.35006E-001	0.00000E+000	9	...........	1467.79
	1066	53.35	2.33981E-001	-1.84553E-006	0.00000E+000	2.33994E-001	0.00000E+000	9	...........	1467.79
	1067	53.4	2.32976E-001	-1.87625E-006	0.00000E+000	2.32994E-001	0.00000E+000	9	...........	1467.79
	1068	53.45	2.31979E-001	-1.92171E-006	0.00000E+000	2.31994E-001	0.00000E+000	9	...........	1467.79
	1069	53.5	2.30977E-001	-1.95895E-006	0.00000E+000	2.30995E-001	0.00000E+000	9	...........	1467.79
	1070	53.55	2.29968E-001	-2.00780E-006	0.00000E+000	2.29995E-001	0.00000E+000	9	...........	1467.79
	1071	53.6	2.28972E-001	-2.04674E-006	0.00000E+000	2.28996E-001	0.00000E+000	9	...........	1467.79
	1072	53.65	2.27973E-001	-2.09330E-006	0.00000E+000	2.27996E-001	0.00000E+000	9	...........	1467.79
	1073	53.7	2.26964E-001	-2.13238E-006	0.00000E+000	2.26996E-001	0.00000E+000	9	...........	1467.79
	1074	53.75	2.25965E-001	-2.18908E-006	0.00000E+000	2.25997E-001	0.00000E+000	9	...........	1467.79
	1075	53.8	2.24972E-001	-2.22553E-006	0.00000E+000	2.24997E-001	0.00000E+000	9	...........	1467.79
	1076	53.85	2.23988E-001	-2.27425E-006	0.00000E+000	2.23997E-001	0.00000E+000	9	...........	1467.79
	1077	53.9	2.22984E-001	-2.31713E-006	0.00000E+000	2.22998E-001	0.00000E+000	9	...........	1467.79
	1078	53.95	2.21983E-001	-2.36666E-006	0.00000E+000	2.21998E-001	0.00000E+000	9	...........	1467.79
	1079	54	2.20989E-001	-2.40763E-006	0.00000E+000	2.20998E-001	0.00000E+000	9	...........	1467.79
	1080	54.05	2.19981E-001	-2.46486E-006	0.00000E+000	2.19999E-001	0.00000E+000	9	...........	1467.79
	1081	54.1	2.18979E-001	-2.50662E-006	0.00000E+000	2.18999E-001	0.00000E+000	9	...........	1467.79
	1082	54.15	2.18000E-001	-2.56144E-006	0.00000E+000	2.17999E-001	0.00000E+000	9	...........	1467.79
	1083	54.2	2.16967E-001	-2.60796E-006	0.00000E+000	2.17000E-001	0.00000E+000	9	...........	1467.79
	1084	54.25	2.15964E-001	-2.66014E-006	0.00000E+000	2.16000E-001	0.00000E+000	9	...........	1467.61
	1085	54.3	2.14968E-001	-2.69999E-006	0.00000E+000	2.15000E-001	0.00000E+000	9	...........	1467.52
	1086	54.35	2.13963E-001	-2.75905E-006	0.00000E+000	2.14001E-001	0.00000E+000	9	...........	1467.52
	1087	54.4	2.12977E-001	-2.80042E-006	0.00000E+000	2.13001E-001	0.00000E+000	9	...........	1467.52
	1088	54.45	2.11991E-001	-2.85561E-006	0.00000E+000	2.12001E-001	0.00000E+000	9	...........	1467.52
	1089	54.5	2.10986E-001	-2.89840E-006	0.00000E+000	2.11002E-001	0.00000E+000	9	...........	1467.52
	1090	54.55	2.09987E-001	-2.95698E-006	0.00000E+000	2.10002E-001	0.00000E+000	9	...........	1467.52
	1091	54.6	2.08990E-001	-2.99951E-006	0.00000E+000	2.09003E-001	0.00000E+000	9	...........	1467.52
	1092	54.65	2.07992E-001	-3.05808E-006	0.00000E+000	2.08003E-001	0.00000E+000	9	...........	1467.52
	1093	54.7	2.06979E-001	-3.10104E-006	0.00000E+000	2.07003E-001	0.00000E+000	9	...........	1467.52
	1094	54.75	2.05996E-001	-3.15700E-006	0.00000E+000	2.06004E-001	0.00000E+000	9	...........	1467.52
	1095	54.8	2.04994E-001	-3.20202E-006	0.00000E+000	2.05004E-001	0.00000E+000	9	...........	1467.52
	1096	54.85	2.03978E-001	-3.26418E-006	0.00000E+000	2.04004E-001	0.00000E+000	9	...........	1467.52
	1097	54.9	2.02980E-001	-3.30784E-006	0.00000E+000	2.03005E-001	0.00000E+000	9	...........	1467.52
	1098	54.95	2.01984E-001	-3.37341E-006	0.00000E+000	2.02005E-001	0.00000E+000	9	...........	1467.52
	1099	55	2.00984E-001	-3.42271E-006	0.00000E+000	2.01005E-001	0.00000E+000	9	...........	1467.52
	1100	55.05	1.99999E-001	-3.48220E-006	0.00000E+000	2.00006E-001	0.00000E+000	9	...........	1467.52
	1101	55.1	1.99004E-001	-3.52405E-006	0.00000E+000	1.99006E-001	0.00000E+000	9	...........	1467.52
	1102	55.15	1.97982E-001	-3.59309E-006	0.00000E+000	1.97994E-001	0.00000E+000	9	...........	1467.52
	1103	55.2	1.96985E-001	-3.64214E-006	0.00000E+000	1.96994E-001	0.00000E+000	9	...........	1467.52
	1104	55.25	1.95991E-001	-3.70271E-006	0.00000E+000	1.95995E-001	0.00000E+000	9	...........	1467.52
	1105	55.3	1.94993E-001	-3.75299E-006	0.00000E+000	1.94995E-001	0.00000E+000	9	...........	1467.52
	1106	55.35	1.94002E-001	-3.81989E-006	0.00000E+000	1.93995E-001	0.00000E+000	9	...........	1467.52
	1107	55.4	1.93008E-001	-3.86363E-006	0.00000E+000	1.92996E-001	0.00000E+000	9	...........	1467.52
	1108	55.45	1.92010E-001	-3.92328E-006	0.00000E+000	1.91996E-001	0.00000E+000	9	...........	1467.52
	1109	55.5	1.90978E-001	-3.97541E-006	0.00000E+000	1.90996E-001	0.00000E+000	9	...........	1467.52
	1110	55.55	1.89983E-001	-4.04095E-006	0.00000E+000	1.89997E-001	0.00000E+000	9	...........	1467.52
	1111	55.6	1.88985E-001	-4.09652E-006	0.00000E+000	1.88997E-001	0.00000E+000	9	...........	1467.52
	1112	55.65	1.87992E-001	-4.15823E-006	0.00000E+000	1.87997E-001	0.00000E+000	9	...........	1467.52
	1113	55.7	1.86984E-001	-4.20946E-006	0.00000E+000	1.86998E-001	0.00000E+000	9	...........	1467.52
	1114	55.75	1.85984E-001	-4.27265E-006	0.00000E+000	1.85998E-001	0.00000E+000	9	...........	1467.52
	1115	55.8	1.84982E-001	-4.33303E-006	0.00000E+000	1.84998E-001	0.00000E+000	9	...........	1467.52
	1116	55.85	1.83986E-001	-4.39687E-006	0.00000E+000	1.83999E-001	0.00000E+000	9	...........	1467.52
	1117	55.9	1.82987E-001	-4.45019E-006	0.00000E+000	1.82999E-001	0.00000E+000	9	...........	1467.52
	1118	55.95	1.81991E-001	-4.51435E-006	0.00000E+000	1.81999E-001	0.00000E+000	9	...........	1467.52
	1119	56	1.80994E-001	-4.57418E-006	0.00000E+000	1.81000E-001	0.00000E+000	9	...........	1467.52
	1120	56.05	1.79984E-001	-4.63094E-006	0.00000E+000	1.80000E-001	0.00000E+000	9	...........	1467.52
	1121	56.1	1.78978E-001	-4.68883E-006	0.00000E+000	1.79000E-001	0.00000E+000	9	...........	1467.52
	1122	56.15	1.77980E-001	-4.75133E-006	0.00000E+000	1.78001E-001	0.00000E+000	9	...........	1467.52
	1123	56.2	1.76980E-001	-4.80879E-006	0.00000E+000	1.77001E-001	0.00000E+000	9	...........	1467.52
	1124	56.25	1.75987E-001	-4.87264E-006	0.00000E+000	1.76002E-001	0.00000E+000	9	...........	1467.84
	1125	56.3	1.74976E-001	-4.92902E-006	0.00000E+000	1.75002E-001	0.00000E+000	9	...........	1467.97
	1126	56.35	1.73984E-001	-4.99141E-006	0.00000E+000	1.74002E-001	0.00000E+000	9	...........	1467.97
	1127	56.4	1.72994E-001	-5.04918E-006	0.00000E+000	1.73003E-001	0.00000E+000	9	...........	1467.97
	1128	56.45	1.71986E-001	-5.10957E-006	0.00000E+000	1.72003E-001	0.00000E+000	9	...........	1467.97
	1129	56.5	1.70977E-001	-5.16985E-006	0.00000E+000	1.71003E-001	0.00000E+000	9	...........	1467.97
	1130	56.55	1.69993E-001	-5.22897E-006	0.00000E+000	1.70004E-001	0.00000E+000	9	...........	1467.97
	1131	56.6	1.68997E-001	-5.28666E-006	0.00000E+000	1.69004E-001	0.00000E+000	9	...........	1467.97
	1132	56.65	1.68007E-001	-5.34761E-006	0.00000E+000	1.68004E-001	0.00000E+000	9	...........	1467.97
	1133	56.7	1.67012E-001	-5.40494E-006	0.00000E+000	1.67005E-001	0.00000E+000	9	...........	1467.97
	1134	56.75	1.65975E-001	-5.46703E-006	0.00000E+000	1.66005E-001	0.00000E+000	9	...........	1467.97
	1135	56.8	1.64979E-001	-5.52884E-006	0.00000E+000	1.65005E-001	0.00000E+000	9	...........	1467.97
	1136	56.85	1.63990E-001	-5.59121E-006	0.00000E+000	1.64006E-001	0.00000E+000	9	...........	1467.97
	1137	56.9	1.62980E-001	-5.64972E-006	0.00000E+000	1.63006E-001	0.00000E+000	9	...........	1467.97
	1138	56.95	1.61978E-001	-5.71419E-006	0.00000E+000	1.61994E-001	0.00000E+000	9	...........	1467.97
	1139	57	1.60986E-001	-5.77009E-006	0.00000E+000	1.60994E-001	0.00000E+000	9	...........	1467.97
	1140	57.05	1.59989E-001	-5.82568E-006	0.00000E+000	1.59995E-001	0.00000E+000	9	...........	1467.97
	1141	57.1	1.58981E-001	-5.88484E-006	0.00000E+000	1.58995E-001	0.00000E+000	9	...........	1467.97
	1142	57.15	1.57994E-001	-5.94456E-006	0.00000E+000	1.57995E-001	0.00000E+000	9	...........	1467.97
	1143	57.2	1.57003E-001	-6.00932E-006	0.00000E+000	1.56996E-001	0.00000E+000	9	...........	1467.97
	1144	57.25	1.55994E-001	-6.06321E-006	0.00000E+000	1.55996E-001	0.00000E+000	9	...........	1467.72
	1145	57.3	1.54996E-001	-6.12697E-006	0.00000E+000	1.54996E-001	0.00000E+000	9	...........	1467.61
	1146	57.35	1.53978E-001	-6.18475E-006	0.00000E+000	1.53997E-001	0.00000E+000	9	...........	1467.61
	1147	57.4	1.52965E-001	-6.25044E-006	0.00000E+000	1.52997E-001	0.00000E+000	9	...........	1467.61
	1148	57.45	1.51964E-001	-6.31010E-006	0.00000E+000	1.51997E-001	0.00000E+000	9	...........	1467.61
	1149	57.5	1.50965E-001	-6.37525E-006	0.00000E+000	1.50998E-001	0.00000E+000	9	...........	1467.61
	1150	57.55	1.49969E-001	-6.43632E-006	0.00000E+000	1.49998E-001	0.00000E+000	9	...........	1467.61
	1151	57.6	1.48974E-001	-6.49757E-006	0.00000E+000	1.48998E-001	0.00000E+000	9	...........	1467.61
	1152	57.65	1.47992E-001	-6.55007E-006	0.00000E+000	1.47999E-001	0.00000E+000	9	...........	1467.61
	1153	57.7	1.46996E-001	-6.61264E-006	0.00000E+000	1.46999E-001	0.00000E+000	9	...........	1467.61
	1154	57.75	1.45988E-001	-6.67309E-006	0.00000E+000	1.46000E-001	0.00000E+000	9	...........	1467.61
	1155	57.8	1.44987E-001	-6.73449E-006	0.00000E+000	1.45000E-001	0.00000E+000	9	...........	1467.61
	1156	57.85	1.43994E-001	-6.79358E-006	0.00000E+000	1.44000E-001	0.00000E+000	9	...........	1467.61
	1157	57.9	1.42999E-001	-6.85832E-006	0.00000E+000	1.43001E-001	0.00000E+000	9	...........	1467.61
	1158	57.95	1.42004E-001	-6.91626E-006	0.00000E+000	1.42001E-001	0.00000E+000	9	...........	1467.61
	1159	58	1.41011E-001	-6.98163E-006	0.00000E+000	1.41001E-001	0.00000E+000	9	...........	1467.61
	1160	58.05	1.39976E-001	-7.03792E-006	0.00000E+000	1.40002E-001	0.00000E+000	9	...........	1467.61
	1161	58.1	1.38983E-001	-7.10305E-006	0.00000E+000	1.39002E-001	0.00000E+000	9	...........	1467.61
	1162	58.15	1.37991E-001	-7.16658E-006	0.00000E+000	1.38002E-001	0.00000E+000	9	...........	1467.61
	1163	58.2	1.36996E-001	-7.23503E-006	0.00000E+000	1.37003E-001	0.00000E+000	9	...........	1467.61
	1164	58.25	1.35999E-001	-7.29534E-006	0.00000E+000	1.36003E-001	0.00000E+000	9	...........	1467.55
	1165	58.3	1.35000E-001	-7.36287E-006	0.00000E+000	1.35003E-001	0.00000E+000	9	...........	1467.52
	1166	58.35	1.34000E-001	-7.42358E-006	0.00000E+000	1.34004E-001	0.00000E+000	9	...........	1467.52
	1167	58.4	1.33006E-001	-7.49123E-006	0.00000E+000	1.33004E-001	0.00000E+000	9	...........	1467.52
	1168	58.45	1.32008E-001	-7.55480E-006	0.00000E+000	1.32004E-001	0.00000E+000	9	...........	1467.52
	1169	58.5	1.31004E-001	-7.62644E-006	0.00000E+000	1.31005E-001	0.00000E+000	9	...........	1467.52
	1170	58.55	1.30001E-001	-7.68615E-006	0.00000E+000	1.30005E-001	0.00000E+000	9	...........	1467.52
	1171	58.6	1.29002E-001	-7.74984E-006	0.00000E+000	1.29005E-001	0.00000E+000	9	...........	1467.52
	1172	58.65	1.27999E-001	-7.81472E-006	0.00000E+000	1.28006E-001	0.00000E+000	9	...........	1467.52
	1173	58.7	1.26986E-001	-7.88598E-006	0.00000E+000	1.27006E-001	0.00000E+000	9	...........	1467.52
	1174	58.75	1.25972E-001	-7.95034E-006	0.00000E+000	1.25994E-001	0.00000E+000	9	...........	1467.52
	1175	58.8	1.24977E-001	-8.01907E-006	0.00000E+000	1.24994E-001	0.00000E+000	9	...........	1467.52
	1176	58.85	1.23974E-001	-8.08267E-006	0.00000E+000	1.23995E-001	0.00000E+000	9	...........	1467.52
	1177	58.9	1.22979E-001	-8.15935E-006	0.00000E+000	1.22995E-001	0.00000E+000	9	...........	1467.52
	1178	58.95	1.21985E-001	-8.22388E-006	0.00000E+000	1.21995E-001	0.00000E+000	9	...........	1467.52
	1179	59	1.20981E-001	-8.29948E-006	0.00000E+000	1.20996E-001	0.00000E+000	9	...........	1467.52
	1180	59.05	1.19987E-001	-8.36803E-006	0.00000E+000	1.19996E-001	0.00000E+000	9	...........	1467.52
	1181	59.1	1.18994E-001	-8.44045E-006	0.00000E+000	1.18996E-001	0.00000E+000	9	...........	1467.52
	1182	59.15	1.17988E-001	-8.50719E-006	0.00000E+000	1.17997E-001	0.00000E+000	9	...........	1467.52
	1183	59.2	1.16994E-001	-8.58180E-006	0.00000E+000	1.16997E-001	0.00000E+000	9	...........	1467.52
	1184	59.25	1.16002E-001	-8.65184E-006	0.00000E+000	1.15997E-001	0.00000E+000	9	...........	1467.52
	1185	59.3	1.14985E-001	-8.73161E-006	0.00000E+000	1.14998E-001	0.00000E+000	9	...........	1467.52
	1186	59.35	1.13971E-001	-8.79879E-006	0.00000E+000	1.13998E-001	0.00000E+000	9	...........	1467.52
	1187	59.4	1.12977E-001	-8.87118E-006	0.00000E+000	1.12999E-001	0.00000E+000	9	...........	1467.52
	1188	59.45	1.11980E-001	-8.93864E-006	0.00000E+000	1.11999E-001	0.00000E+000	9	...........	1467.52
	1189	59.5	1.10982E-001	-9.02168E-006	0.00000E+000	1.10999E-001	0.00000E+000	9	...........	1467.52
	1190	59.55	1.09988E-001	-9.09108E-006	0.00000E+000	1.10000E-001	0.00000E+000	9	...........	1467.52
	1191	59.6	1.08991E-001	-9.16679E-006	0.00000E+000	1.09000E-001	0.00000E+000	9	...........	1467.52
	1192	59.65	1.07980E-001	-9.23658E-006	0.00000E+000	1.08000E-001	0.00000E+000	9	...........	1467.52
	1193	59.7	1.06978E-001	-9.31240E-006	0.00000E+000	1.07001E-001	0.00000E+000	9	...........	1467.52
	1194	59.75	1.05985E-001	-9.37795E-006	0.00000E+000	1.06001E-001	0.00000E+000	9	...........	1467.52
	1195	59.8	1.04988E-001	-9.45915E-006	0.00000E+000	1.05001E-001	0.00000E+000	9	...........	1467.52
	1196	59.85	1.04005E-001	-9.53041E-006	0.00000E+000	1.04002E-001	0.00000E+000	9	...........	1467.52
	1197	59.9	1.03011E-001	-9.60559E-006	0.00000E+000	1.03002E-001	0.00000E+000	9	...........	1467.52
	1198	59.95	1.01991E-001	-9.67580E-006	0.00000E+000	1.02002E-001	0.00000E+000	9	...........	1467.52
	1199	60	1.00997E-001	-9.75440E-006	0.00000E+000	1.01003E-001	0.00000E+000	9	...........	1467.52
	1200	60.05	1.00002E-001	-9.81836E-006	0.00000E+000	1.00003E-001	0.00000E+000	9	...........	1467.52
CURVE4	TABLE
	Pt	T	Vf	Im	Vu	Sig	Ach	IERange	Over	Temp
	#	s	V vs. Ref.	A	V	V	V	#	bits	deg C
	1201	60.1	9.99896E-002	-9.44241E-006	0.00000E+000	1.00003E-001	0.00000E+000	9	...........	1467.52