File: input/ECSA_test/CV_ECSA_#2_#9.DTA
EXPLAIN
TAG	CV
TITLE	LABEL	ECSA	Test Identifier
DATE	LABEL	2/13/2024	Date
TIME	LABEL	12:05:41	Time
NOTES	NOTES	1	Notes...

PSTAT	PSTAT	IFC1010-36068	Potentiostat
VINIT	POTEN	1.00000E-001	F	Initial E (V)
VLIMIT1	POTEN	3.00000E-001	F	Scan Limit 1 (V)
VLIMIT2	POTEN	1.00000E-001	F	Scan Limit 2 (V)
VFINAL	POTEN	1.00000E-001	F	Final E (V)
SCANRATE	QUANT	8.99998E+001	A Real Number
STEPSIZE	QUANT	1.00000E+000	Step Size (mV)
CYCLES	IQUANT	3	Cycles (#)
IMODE	SELECTOR	1	I/E Range Mode
IRANGE	QUANT	3.00000E-001	Max Current (mA)
AREA	QUANT	1.00000E+000	Sample Area (cm^2)
EQDELAY	QUANT	0.00000E+000	Equil. Time (s)
IRCOMP	SELECTOR	0	IRComp
PFCOR	QUANT	5.00000E+001	PF Corr. (ohm)
SAMPLINGMODE	SELECTOR	2	Sampling Mode
EOC	QUANT	0.3246219	Open Circuit (V)
ELECTRODETYPE	SELECTOR	0	Electrode Type
STRIPPING	TOGGLE	F	Used for Stripping
SEQUENCER	TOGGLE	TRUE	Run as Sequence
PSTATMODEL	IQUANT	64	Pstat Model
PSTATSECTION	LABEL	IFC1010-36068	Pstat Section
PSTATSERIALNO	LABEL	36068	Pstat Serial Number
CTRLMODE	IQUANT	1	Control Mode
ELECTROMETER	IQUANT	0	RE=0 or CS=1
IESTAB	IQUANT	2	I/E Stability
CASPEED	IQUANT	4	Control Amp Speed
CONVENTION	IQUANT	1	Current Convention
ICHRANGE	IQUANT	2	Ich Range
ICHRANGEMODE	TOGGLE	F	Ich Auto Range
ICHOFFSETENABLE	TOGGLE	F	Ich Offset Enable
ICHOFFSET	QUANT	0	Ich Offset (V)
ICHFILTER	IQUANT	3	Ich Filter
VCHRANGE	IQUANT	2	Vch Range
VCHRANGEMODE	TOGGLE	F	Vch Auto Range
VCHOFFSETENABLE	TOGGLE	F	Vch Offset Enable
VCHOFFSET	QUANT	0	Vch Offset (V)
VCHFILTER	IQUANT	3	Vch Filter
IERANGELOWERLIMIT	IQUANT	4	I/E Range Lower Limit
IERANGEMODE	TOGGLE	F	I/E AutoRange
IERANGE	IQUANT	9	I/E Range
ACHSELECT	IQUANT	0	Ach Select
ACHRANGE	IQUANT	2	Ach Range
ACHOFFSETENABLE	TOGGLE	F	Ach Offset Enable
ACHOFFSET	QUANT	0	Ach Offset (V)
ACHFILTER	IQUANT	1	Ach Filter
SENSECABLEID	IQUANT	13	Sense Cable ID
PWRCABLEID	IQUANT	13	Power Cable ID
DCCALDATE	LABEL	8/11/2023	DC Calibration Date
ACCALDATE	LABEL	6/2/2023	AC Calibration Date
FRAMEWORKVERSION	LABEL	7.10.3	Framework Version
INSTRUMENTVERSION	LABEL	4.91	Instrument Version
COMMVERSION	LABEL	3.10	Communications Version
CPUPLDVERSION	LABEL	2.22	CPU PLD Version
CTRLPLDVERSION	LABEL	0.00	CTRL PLD Version
PSTATPLDVERSION	LABEL	0.00	PSTAT PLD Version
CURVE1	TABLE
	Pt	T	Vf	Im	Vu	Sig	Ach	IERange	Over	Temp
	#	s	V vs. Ref.	A	V	V	V	#	bits	deg C
	0	0.011117	9.99878E-002	-3.33588E-006	0.00000E+000	1.00003E-001	0.00000E+000	9	...........	1467.52
	1	0.022233	1.00963E-001	-1.89570E-006	0.00000E+000	1.01003E-001	0.00000E+000	9	...........	1467.52
	2	0.03335	1.01960E-001	-1.73858E-006	0.00000E+000	1.02002E-001	0.00000E+000	9	...........	1467.52
	3	0.044467	1.02976E-001	-1.60502E-006	0.00000E+000	1.03002E-001	0.00000E+000	9	...........	1467.52
	4	0.055583	1.03976E-001	-1.46965E-006	0.00000E+000	1.04002E-001	0.00000E+000	9	...........	1467.52
	5	0.0667	1.04963E-001	-1.39723E-006	0.00000E+000	1.05001E-001	0.00000E+000	9	...........	1467.52
	6	0.077817	1.05961E-001	-1.26322E-006	0.00000E+000	1.06001E-001	0.00000E+000	9	...........	1467.52
	7	0.088933	1.06965E-001	-1.22798E-006	0.00000E+000	1.07001E-001	0.00000E+000	9	...........	1467.52
	8	0.10005	1.07960E-001	-1.11046E-006	0.00000E+000	1.08000E-001	0.00000E+000	9	...........	1467.52
	9	0.111167	1.08964E-001	-1.06876E-006	0.00000E+000	1.09000E-001	0.00000E+000	9	...........	1467.52
	10	0.122283	1.09965E-001	-9.66170E-007	0.00000E+000	1.10000E-001	0.00000E+000	9	...........	1467.52
	11	0.1334	1.10972E-001	-8.91044E-007	0.00000E+000	1.11012E-001	0.00000E+000	9	...........	1467.52
	12	0.144517	1.11967E-001	-8.44234E-007	0.00000E+000	1.12011E-001	0.00000E+000	9	...........	1467.52
	13	0.155633	1.12966E-001	-7.61540E-007	0.00000E+000	1.13011E-001	0.00000E+000	9	...........	1467.52
	14	0.16675	1.13963E-001	-7.31119E-007	0.00000E+000	1.14011E-001	0.00000E+000	9	...........	1467.52
	15	0.177867	1.14987E-001	-6.26223E-007	0.00000E+000	1.15010E-001	0.00000E+000	9	...........	1467.52
	16	0.188983	1.15994E-001	-6.12541E-007	0.00000E+000	1.16010E-001	0.00000E+000	9	...........	1467.52
	17	0.2001	1.16984E-001	-5.17518E-007	0.00000E+000	1.17010E-001	0.00000E+000	9	...........	1467.52
	18	0.211217	1.17977E-001	-4.96819E-007	0.00000E+000	1.18009E-001	0.00000E+000	9	...........	1467.52
	19	0.222333	1.18981E-001	-4.14476E-007	0.00000E+000	1.19009E-001	0.00000E+000	9	...........	1467.52
	20	0.23345	1.19979E-001	-3.77239E-007	0.00000E+000	1.20009E-001	0.00000E+000	9	...........	1467.52
	21	0.244567	1.20977E-001	-3.33235E-007	0.00000E+000	1.21008E-001	0.00000E+000	9	...........	1467.52
	22	0.255683	1.21979E-001	-2.62219E-007	0.00000E+000	1.22008E-001	0.00000E+000	9	...........	1467.52
	23	0.2668	1.22965E-001	-2.41220E-007	0.00000E+000	1.23008E-001	0.00000E+000	9	...........	1467.52
	24	0.277917	1.23966E-001	-1.55919E-007	0.00000E+000	1.24007E-001	0.00000E+000	9	...........	1467.52
	25	0.289033	1.24965E-001	-1.45645E-007	0.00000E+000	1.25007E-001	0.00000E+000	9	...........	1467.52
	26	0.30015	1.25972E-001	-4.77657E-008	0.00000E+000	1.26019E-001	0.00000E+000	9	...........	1467.52
	27	0.311267	1.26970E-001	-4.94196E-008	0.00000E+000	1.27019E-001	0.00000E+000	9	...........	1467.52
	28	0.322383	1.27982E-001	2.18476E-008	0.00000E+000	1.28018E-001	0.00000E+000	9	...........	1467.52
	29	0.3335	1.28986E-001	4.86104E-008	0.00000E+000	1.29018E-001	0.00000E+000	9	...........	1467.52
	30	0.344617	1.29987E-001	8.99073E-008	0.00000E+000	1.30018E-001	0.00000E+000	9	...........	1467.52
	31	0.355733	1.30988E-001	1.54559E-007	0.00000E+000	1.31017E-001	0.00000E+000	9	...........	1467.52
	32	0.36685	1.31988E-001	1.58869E-007	0.00000E+000	1.32017E-001	0.00000E+000	9	...........	1467.52
	33	0.377967	1.32984E-001	2.35749E-007	0.00000E+000	1.33017E-001	0.00000E+000	9	...........	1467.52
	34	0.389083	1.33976E-001	2.35449E-007	0.00000E+000	1.34016E-001	0.00000E+000	9	...........	1467.52
	35	0.4002	1.34982E-001	3.11878E-007	0.00000E+000	1.35016E-001	0.00000E+000	9	...........	1467.52
	36	0.411317	1.35983E-001	3.19095E-007	0.00000E+000	1.36015E-001	0.00000E+000	9	...........	1467.52
	37	0.422433	1.36980E-001	3.85401E-007	0.00000E+000	1.37015E-001	0.00000E+000	9	...........	1467.52
	38	0.43355	1.37984E-001	4.21034E-007	0.00000E+000	1.38015E-001	0.00000E+000	9	...........	1467.52
	39	0.444667	1.38982E-001	4.46093E-007	0.00000E+000	1.39014E-001	0.00000E+000	9	...........	1467.52
	40	0.455783	1.39975E-001	5.06435E-007	0.00000E+000	1.40014E-001	0.00000E+000	9	...........	1467.52
	41	0.4669	1.41010E-001	5.28637E-007	0.00000E+000	1.41026E-001	0.00000E+000	9	...........	1467.52
	42	0.478017	1.42011E-001	5.90532E-007	0.00000E+000	1.42026E-001	0.00000E+000	9	...........	1467.52
	43	0.489133	1.43008E-001	5.81811E-007	0.00000E+000	1.43026E-001	0.00000E+000	9	...........	1467.52
	44	0.50025	1.44003E-001	6.60847E-007	0.00000E+000	1.44025E-001	0.00000E+000	9	...........	1467.52
	45	0.511367	1.44995E-001	6.66209E-007	0.00000E+000	1.45025E-001	0.00000E+000	9	...........	1467.52
	46	0.522483	1.45993E-001	7.20386E-007	0.00000E+000	1.46024E-001	0.00000E+000	9	...........	1467.52
	47	0.5336	1.47007E-001	7.56271E-007	0.00000E+000	1.47024E-001	0.00000E+000	9	...........	1467.52
	48	0.544717	1.47996E-001	7.71556E-007	0.00000E+000	1.48024E-001	0.00000E+000	9	...........	1467.52
	49	0.555833	1.48987E-001	8.21724E-007	0.00000E+000	1.49023E-001	0.00000E+000	9	...........	1467.52
	50	0.56695	1.49986E-001	8.29192E-007	0.00000E+000	1.50023E-001	0.00000E+000	9	...........	1467.52
	51	0.578067	1.50976E-001	9.00158E-007	0.00000E+000	1.51023E-001	0.00000E+000	9	...........	1467.52
	52	0.589183	1.51980E-001	9.00459E-007	0.00000E+000	1.52022E-001	0.00000E+000	9	...........	1467.52
	53	0.6003	1.52974E-001	9.65161E-007	0.00000E+000	1.53022E-001	0.00000E+000	9	...........	1467.52
	54	0.611417	1.53984E-001	9.64108E-007	0.00000E+000	1.54022E-001	0.00000E+000	9	...........	1467.52
	55	0.622533	1.54998E-001	1.01367E-006	0.00000E+000	1.55021E-001	0.00000E+000	9	...........	1467.52
	56	0.63365	1.56003E-001	1.05798E-006	0.00000E+000	1.56034E-001	0.00000E+000	9	...........	1467.52
	57	0.644767	1.57014E-001	1.06324E-006	0.00000E+000	1.57033E-001	0.00000E+000	9	...........	1467.52
	58	0.655883	1.58003E-001	1.12879E-006	0.00000E+000	1.58033E-001	0.00000E+000	9	...........	1467.52
	59	0.667	1.58991E-001	1.11486E-006	0.00000E+000	1.59032E-001	0.00000E+000	9	...........	1467.52
	60	0.678117	1.60000E-001	1.19204E-006	0.00000E+000	1.60032E-001	0.00000E+000	9	...........	1467.52
	61	0.689233	1.60991E-001	1.17781E-006	0.00000E+000	1.61032E-001	0.00000E+000	9	...........	1467.52
	62	0.70035	1.61986E-001	1.24577E-006	0.00000E+000	1.62031E-001	0.00000E+000	9	...........	1467.52
	63	0.711467	1.62988E-001	1.25564E-006	0.00000E+000	1.63031E-001	0.00000E+000	9	...........	1467.52
	64	0.722583	1.63988E-001	1.28827E-006	0.00000E+000	1.64031E-001	0.00000E+000	9	...........	1467.52
	65	0.7337	1.64979E-001	1.32957E-006	0.00000E+000	1.65030E-001	0.00000E+000	9	...........	1467.70
	66	0.744817	1.65968E-001	1.33914E-006	0.00000E+000	1.66030E-001	0.00000E+000	9	...........	1467.70
	67	0.755933	1.67007E-001	1.39512E-006	0.00000E+000	1.67030E-001	0.00000E+000	9	...........	1467.70
	68	0.76705	1.68008E-001	1.38354E-006	0.00000E+000	1.68029E-001	0.00000E+000	9	...........	1467.70
	69	0.778167	1.69001E-001	1.46173E-006	0.00000E+000	1.69029E-001	0.00000E+000	9	...........	1467.70
	70	0.789283	1.70017E-001	1.46117E-006	0.00000E+000	1.70041E-001	0.00000E+000	9	...........	1467.70
	71	0.8004	1.71009E-001	1.50332E-006	0.00000E+000	1.71041E-001	0.00000E+000	9	...........	1467.70
	72	0.811517	1.72006E-001	1.50984E-006	0.00000E+000	1.72040E-001	0.00000E+000	9	...........	1467.70
	73	0.822633	1.73012E-001	1.53800E-006	0.00000E+000	1.73040E-001	0.00000E+000	9	...........	1467.70
	74	0.83375	1.74012E-001	1.57479E-006	0.00000E+000	1.74040E-001	0.00000E+000	9	...........	1467.70
	75	0.844867	1.75007E-001	1.58542E-006	0.00000E+000	1.75039E-001	0.00000E+000	9	...........	1467.70
	76	0.855983	1.76012E-001	1.64846E-006	0.00000E+000	1.76039E-001	0.00000E+000	9	...........	1467.70
	77	0.8671	1.76998E-001	1.62797E-006	0.00000E+000	1.77039E-001	0.00000E+000	9	...........	1467.70
	78	0.878217	1.77989E-001	1.69668E-006	0.00000E+000	1.78038E-001	0.00000E+000	9	...........	1467.70
	79	0.889333	1.78986E-001	1.68735E-006	0.00000E+000	1.79038E-001	0.00000E+000	9	...........	1467.70
	80	0.90045	1.79999E-001	1.73878E-006	0.00000E+000	1.80038E-001	0.00000E+000	9	...........	1467.70
	81	0.911567	1.81011E-001	1.75085E-006	0.00000E+000	1.81037E-001	0.00000E+000	9	...........	1467.70
	82	0.922683	1.82007E-001	1.77611E-006	0.00000E+000	1.82037E-001	0.00000E+000	9	...........	1467.70
	83	0.9338	1.83011E-001	1.81651E-006	0.00000E+000	1.83037E-001	0.00000E+000	9	...........	1467.70
	84	0.944917	1.84004E-001	1.81921E-006	0.00000E+000	1.84036E-001	0.00000E+000	9	...........	1467.70
	85	0.95603	1.85018E-001	1.89860E-006	0.00000E+000	1.85048E-001	0.00000E+000	9	...........	1467.70
	86	0.96715	1.86015E-001	1.85991E-006	0.00000E+000	1.86048E-001	0.00000E+000	9	...........	1467.70
	87	0.97827	1.87012E-001	1.93248E-006	0.00000E+000	1.87048E-001	0.00000E+000	9	...........	1467.70
	88	0.98938	1.88011E-001	1.92376E-006	0.00000E+000	1.88047E-001	0.00000E+000	9	...........	1467.70
	89	1.0005	1.89001E-001	1.97558E-006	0.00000E+000	1.89047E-001	0.00000E+000	9	...........	1467.70
	90	1.01162	1.90003E-001	1.98646E-006	0.00000E+000	1.90047E-001	0.00000E+000	9	...........	1467.70
	91	1.02273	1.91003E-001	2.00791E-006	0.00000E+000	1.91046E-001	0.00000E+000	9	...........	1467.70
	92	1.03385	1.92031E-001	2.04119E-006	0.00000E+000	1.92046E-001	0.00000E+000	9	...........	1467.70
	93	1.04497	1.93016E-001	2.04409E-006	0.00000E+000	1.93046E-001	0.00000E+000	9	...........	1467.70
	94	1.05608	1.94012E-001	2.10313E-006	0.00000E+000	1.94045E-001	0.00000E+000	9	...........	1467.70
	95	1.0672	1.95002E-001	2.08263E-006	0.00000E+000	1.95045E-001	0.00000E+000	9	...........	1467.70
	96	1.07832	1.96003E-001	2.15119E-006	0.00000E+000	1.96045E-001	0.00000E+000	9	...........	1467.70
	97	1.08943	1.96996E-001	2.13345E-006	0.00000E+000	1.97044E-001	0.00000E+000	9	...........	1467.70
	98	1.10055	1.97998E-001	2.19049E-006	0.00000E+000	1.98044E-001	0.00000E+000	9	...........	1467.70
	99	1.11167	1.99009E-001	2.19981E-006	0.00000E+000	1.99043E-001	0.00000E+000	9	...........	1467.70
	100	1.12278	2.00020E-001	2.23840E-006	0.00000E+000	2.00056E-001	0.00000E+000	9	...........	1467.70
	101	1.1339	2.01014E-001	2.26621E-006	0.00000E+000	2.01055E-001	0.00000E+000	9	...........	1467.70
	102	1.14502	2.02011E-001	2.25754E-006	0.00000E+000	2.02055E-001	0.00000E+000	9	...........	1467.70
	103	1.15613	2.03010E-001	2.32726E-006	0.00000E+000	2.03055E-001	0.00000E+000	9	...........	1467.70
	104	1.16725	2.04015E-001	2.30360E-006	0.00000E+000	2.04054E-001	0.00000E+000	9	...........	1467.70
	105	1.17837	2.05026E-001	2.36690E-006	0.00000E+000	2.05054E-001	0.00000E+000	9	...........	1467.70
	106	1.18948	2.06019E-001	2.35773E-006	0.00000E+000	2.06054E-001	0.00000E+000	9	...........	1467.70
	107	1.2006	2.07007E-001	2.40008E-006	0.00000E+000	2.07053E-001	0.00000E+000	9	...........	1467.70
	108	1.21172	2.08006E-001	2.42233E-006	0.00000E+000	2.08053E-001	0.00000E+000	9	...........	1467.70
	109	1.22283	2.09008E-001	2.43531E-006	0.00000E+000	2.09053E-001	0.00000E+000	9	...........	1467.70
	110	1.23395	2.10013E-001	2.48102E-006	0.00000E+000	2.10052E-001	0.00000E+000	9	...........	1467.70
	111	1.24507	2.11009E-001	2.46829E-006	0.00000E+000	2.11052E-001	0.00000E+000	9	...........	1467.70
	112	1.25618	2.12013E-001	2.53108E-006	0.00000E+000	2.12051E-001	0.00000E+000	9	...........	1467.70
	113	1.2673	2.12999E-001	2.50933E-006	0.00000E+000	2.13051E-001	0.00000E+000	9	...........	1467.70
	114	1.27842	2.13997E-001	2.57444E-006	0.00000E+000	2.14051E-001	0.00000E+000	9	...........	1467.70
	115	1.28953	2.15012E-001	2.57699E-006	0.00000E+000	2.15063E-001	0.00000E+000	9	...........	1467.70
	116	1.30065	2.16009E-001	2.60325E-006	0.00000E+000	2.16063E-001	0.00000E+000	9	...........	1467.70
	117	1.31177	2.17005E-001	2.62325E-006	0.00000E+000	2.17062E-001	0.00000E+000	9	...........	1467.70
	118	1.32288	2.18029E-001	2.63067E-006	0.00000E+000	2.18062E-001	0.00000E+000	9	...........	1467.70
	119	1.334	2.19020E-001	2.67552E-006	0.00000E+000	2.19062E-001	0.00000E+000	9	...........	1467.70
	120	1.34512	2.20021E-001	2.67572E-006	0.00000E+000	2.20061E-001	0.00000E+000	9	...........	1467.70
	121	1.35623	2.21023E-001	2.73236E-006	0.00000E+000	2.21061E-001	0.00000E+000	9	...........	1467.70
	122	1.36735	2.22023E-001	2.71762E-006	0.00000E+000	2.22060E-001	0.00000E+000	9	...........	1467.70
	123	1.37847	2.23017E-001	2.77100E-006	0.00000E+000	2.23060E-001	0.00000E+000	9	...........	1467.70
	124	1.38958	2.24026E-001	2.76273E-006	0.00000E+000	2.24060E-001	0.00000E+000	9	...........	1467.70
	125	1.4007	2.25016E-001	2.80387E-006	0.00000E+000	2.25059E-001	0.00000E+000	9	...........	1467.70
	126	1.41182	2.26004E-001	2.82828E-006	0.00000E+000	2.26059E-001	0.00000E+000	9	...........	1467.70
	127	1.42293	2.27009E-001	2.84186E-006	0.00000E+000	2.27059E-001	0.00000E+000	9	...........	1467.70
	128	1.43405	2.28020E-001	2.88476E-006	0.00000E+000	2.28058E-001	0.00000E+000	9	...........	1467.70
	129	1.44517	2.29019E-001	2.88246E-006	0.00000E+000	2.29071E-001	0.00000E+000	9	...........	1467.70
	130	1.45628	2.30016E-001	2.93528E-006	0.00000E+000	2.30070E-001	0.00000E+000	9	...........	1467.70
	131	1.4674	2.31033E-001	2.90506E-006	0.00000E+000	2.31070E-001	0.00000E+000	9	...........	1467.70
	132	1.47852	2.32026E-001	2.96826E-006	0.00000E+000	2.32069E-001	0.00000E+000	9	...........	1467.70
	133	1.48963	2.33022E-001	2.96119E-006	0.00000E+000	2.33069E-001	0.00000E+000	9	...........	1467.70
	134	1.50075	2.34025E-001	2.99843E-006	0.00000E+000	2.34069E-001	0.00000E+000	9	...........	1467.70
	135	1.51187	2.35019E-001	3.02559E-006	0.00000E+000	2.35068E-001	0.00000E+000	9	...........	1467.70
	136	1.52298	2.36007E-001	3.02489E-006	0.00000E+000	2.36068E-001	0.00000E+000	9	...........	1467.70
	137	1.5341	2.37018E-001	3.08368E-006	0.00000E+000	2.37068E-001	0.00000E+000	9	...........	1467.70
	138	1.54522	2.38013E-001	3.05617E-006	0.00000E+000	2.38067E-001	0.00000E+000	9	...........	1467.70
	139	1.55633	2.39014E-001	3.13300E-006	0.00000E+000	2.39067E-001	0.00000E+000	9	...........	1467.70
	140	1.56745	2.40020E-001	3.10894E-006	0.00000E+000	2.40067E-001	0.00000E+000	9	...........	1467.70
	141	1.57857	2.41007E-001	3.16783E-006	0.00000E+000	2.41066E-001	0.00000E+000	9	...........	1467.70
	142	1.58968	2.42008E-001	3.16512E-006	0.00000E+000	2.42066E-001	0.00000E+000	9	...........	1467.70
	143	1.6008	2.43026E-001	3.19369E-006	0.00000E+000	2.43066E-001	0.00000E+000	9	...........	1467.70
	144	1.61192	2.44044E-001	3.24105E-006	0.00000E+000	2.44078E-001	0.00000E+000	9	...........	1467.70
	145	1.62303	2.45032E-001	3.22576E-006	0.00000E+000	2.45077E-001	0.00000E+000	9	...........	1467.70
	146	1.63415	2.46025E-001	3.27799E-006	0.00000E+000	2.46077E-001	0.00000E+000	9	...........	1467.70
	147	1.64527	2.47030E-001	3.26290E-006	0.00000E+000	2.47077E-001	0.00000E+000	9	...........	1467.70
	148	1.65638	2.48026E-001	3.32685E-006	0.00000E+000	2.48076E-001	0.00000E+000	9	...........	1467.70
	149	1.6675	2.49024E-001	3.30310E-006	0.00000E+000	2.49076E-001	0.00000E+000	9	...........	1467.70
	150	1.67862	2.50028E-001	3.36674E-006	0.00000E+000	2.50076E-001	0.00000E+000	9	...........	1467.70
	151	1.68973	2.51027E-001	3.35933E-006	0.00000E+000	2.51075E-001	0.00000E+000	9	...........	1467.70
	152	1.70085	2.52022E-001	3.38358E-006	0.00000E+000	2.52075E-001	0.00000E+000	9	...........	1467.70
	153	1.71197	2.53020E-001	3.43080E-006	0.00000E+000	2.53075E-001	0.00000E+000	9	...........	1467.70
	154	1.72308	2.54015E-001	3.42428E-006	0.00000E+000	2.54074E-001	0.00000E+000	9	...........	1467.67
	155	1.7342	2.55021E-001	3.47771E-006	0.00000E+000	2.55074E-001	0.00000E+000	9	...........	1467.52
	156	1.74532	2.56028E-001	3.46317E-006	0.00000E+000	2.56074E-001	0.00000E+000	9	...........	1467.52
	157	1.75643	2.57038E-001	3.52867E-006	0.00000E+000	2.57073E-001	0.00000E+000	9	...........	1467.52
	158	1.76755	2.58037E-001	3.50778E-006	0.00000E+000	2.58073E-001	0.00000E+000	9	...........	1467.52
	159	1.77867	2.59048E-001	3.58651E-006	0.00000E+000	2.59085E-001	0.00000E+000	9	...........	1467.52
	160	1.78978	2.60038E-001	3.56922E-006	0.00000E+000	2.60085E-001	0.00000E+000	9	...........	1467.52
	161	1.8009	2.61038E-001	3.59799E-006	0.00000E+000	2.61084E-001	0.00000E+000	9	...........	1467.52
	162	1.81202	2.62024E-001	3.63377E-006	0.00000E+000	2.62084E-001	0.00000E+000	9	...........	1467.52
	163	1.82313	2.63037E-001	3.62846E-006	0.00000E+000	2.63084E-001	0.00000E+000	9	...........	1467.52
	164	1.83425	2.64033E-001	3.68680E-006	0.00000E+000	2.64083E-001	0.00000E+000	9	...........	1467.52
	165	1.84537	2.65030E-001	3.67246E-006	0.00000E+000	2.65083E-001	0.00000E+000	9	...........	1467.52
	166	1.85648	2.66035E-001	3.73716E-006	0.00000E+000	2.66083E-001	0.00000E+000	9	...........	1467.52
	167	1.8676	2.67015E-001	3.72073E-006	0.00000E+000	2.67082E-001	0.00000E+000	9	...........	1467.52
	168	1.87872	2.68014E-001	3.77856E-006	0.00000E+000	2.68082E-001	0.00000E+000	9	...........	1467.52
	169	1.88983	2.69054E-001	3.77746E-006	0.00000E+000	2.69082E-001	0.00000E+000	9	...........	1467.52
	170	1.90095	2.70046E-001	3.80768E-006	0.00000E+000	2.70081E-001	0.00000E+000	9	...........	1467.52
	171	1.91207	2.71050E-001	3.84411E-006	0.00000E+000	2.71081E-001	0.00000E+000	9	...........	1467.52
	172	1.92318	2.72047E-001	3.84607E-006	0.00000E+000	2.72081E-001	0.00000E+000	9	...........	1467.52
	173	1.9343	2.73043E-001	3.90380E-006	0.00000E+000	2.73080E-001	0.00000E+000	9	...........	1467.52
	174	1.94542	2.74046E-001	3.89914E-006	0.00000E+000	2.74092E-001	0.00000E+000	9	...........	1467.52
	175	1.95653	2.75053E-001	3.95202E-006	0.00000E+000	2.75092E-001	0.00000E+000	9	...........	1467.52
	176	1.96765	2.76049E-001	3.93428E-006	0.00000E+000	2.76092E-001	0.00000E+000	9	...........	1467.52
	177	1.97877	2.77052E-001	3.98424E-006	0.00000E+000	2.77091E-001	0.00000E+000	9	...........	1467.52
	178	1.98988	2.78044E-001	3.99908E-006	0.00000E+000	2.78091E-001	0.00000E+000	9	...........	1467.52
	179	2.001	2.79034E-001	4.01857E-006	0.00000E+000	2.79091E-001	0.00000E+000	9	...........	1467.52
	180	2.01212	2.80036E-001	4.06989E-006	0.00000E+000	2.80090E-001	0.00000E+000	9	...........	1467.52
	181	2.02323	2.81030E-001	4.05526E-006	0.00000E+000	2.81090E-001	0.00000E+000	9	...........	1467.52
	182	2.03435	2.82040E-001	4.12232E-006	0.00000E+000	2.82090E-001	0.00000E+000	9	...........	1467.52
	183	2.04547	2.83052E-001	4.10027E-006	0.00000E+000	2.83089E-001	0.00000E+000	9	...........	1467.52
	184	2.05658	2.84057E-001	4.17459E-006	0.00000E+000	2.84089E-001	0.00000E+000	9	...........	1467.52
	185	2.0677	2.85051E-001	4.16853E-006	0.00000E+000	2.85088E-001	0.00000E+000	9	...........	1467.52
	186	2.07882	2.86046E-001	4.21624E-006	0.00000E+000	2.86088E-001	0.00000E+000	9	...........	1467.52
	187	2.08993	2.87048E-001	4.23573E-006	0.00000E+000	2.87088E-001	0.00000E+000	9	...........	1467.52
	188	2.10105	2.88065E-001	4.26801E-006	0.00000E+000	2.88100E-001	0.00000E+000	9	...........	1467.52
	189	2.11217	2.89062E-001	4.29918E-006	0.00000E+000	2.89100E-001	0.00000E+000	9	...........	1467.52
	190	2.12328	2.90058E-001	4.29407E-006	0.00000E+000	2.90099E-001	0.00000E+000	9	...........	1467.52
	191	2.1344	2.91050E-001	4.36338E-006	0.00000E+000	2.91099E-001	0.00000E+000	9	...........	1467.52
	192	2.14552	2.92047E-001	4.34309E-006	0.00000E+000	2.92099E-001	0.00000E+000	9	...........	1467.52
	193	2.15663	2.93042E-001	4.41425E-006	0.00000E+000	2.93098E-001	0.00000E+000	9	...........	1467.52
	194	2.16775	2.94043E-001	4.40699E-006	0.00000E+000	2.94098E-001	0.00000E+000	9	...........	1467.52
	195	2.17887	2.95071E-001	4.45866E-006	0.00000E+000	2.95097E-001	0.00000E+000	9	...........	1467.52
	196	2.18998	2.96064E-001	4.47725E-006	0.00000E+000	2.96097E-001	0.00000E+000	9	...........	1467.52
	197	2.2011	2.97049E-001	4.49905E-006	0.00000E+000	2.97097E-001	0.00000E+000	9	...........	1467.52
	198	2.21222	2.98061E-001	4.55223E-006	0.00000E+000	2.98096E-001	0.00000E+000	9	...........	1467.52
	199	2.22333	2.99057E-001	4.54335E-006	0.00000E+000	2.99096E-001	0.00000E+000	9	...........	1467.52
	200	2.23445	3.00055E-001	4.62034E-006	0.00000E+000	3.00096E-001	0.00000E+000	9	...........	1467.52
	201	2.24557	2.99104E-001	1.88532E-006	0.00000E+000	2.99096E-001	0.00000E+000	9	...........	1467.52
	202	2.25668	2.98100E-001	1.67427E-006	0.00000E+000	2.98096E-001	0.00000E+000	9	...........	1467.52
	203	2.2678	2.97095E-001	1.44854E-006	0.00000E+000	2.97097E-001	0.00000E+000	9	...........	1467.52
	204	2.27892	2.96111E-001	1.32470E-006	0.00000E+000	2.96097E-001	0.00000E+000	9	...........	1467.52
	205	2.29003	2.95120E-001	1.19325E-006	0.00000E+000	2.95097E-001	0.00000E+000	9	...........	1467.52
	206	2.30115	2.94088E-001	1.07612E-006	0.00000E+000	2.94098E-001	0.00000E+000	9	...........	1467.52
	207	2.31227	2.93091E-001	9.92976E-007	0.00000E+000	2.93098E-001	0.00000E+000	9	...........	1467.52
	208	2.32338	2.92097E-001	8.73445E-007	0.00000E+000	2.92099E-001	0.00000E+000	9	...........	1467.52
	209	2.3345	2.91094E-001	8.24932E-007	0.00000E+000	2.91099E-001	0.00000E+000	9	...........	1467.52
	210	2.34562	2.90101E-001	7.07757E-007	0.00000E+000	2.90099E-001	0.00000E+000	9	...........	1467.52
	211	2.35673	2.89108E-001	6.74228E-007	0.00000E+000	2.89100E-001	0.00000E+000	9	...........	1467.52
	212	2.36785	2.88112E-001	5.71838E-007	0.00000E+000	2.88100E-001	0.00000E+000	9	...........	1467.52
	213	2.37897	2.87093E-001	5.05532E-007	0.00000E+000	2.87088E-001	0.00000E+000	9	...........	1467.52
	214	2.39008	2.86099E-001	4.57820E-007	0.00000E+000	2.86088E-001	0.00000E+000	9	...........	1467.52
	215	2.4012	2.85102E-001	3.82794E-007	0.00000E+000	2.85088E-001	0.00000E+000	9	...........	1467.52
	216	2.41232	2.84102E-001	3.56232E-007	0.00000E+000	2.84089E-001	0.00000E+000	9	...........	1467.52
	217	2.42343	2.83101E-001	2.61159E-007	0.00000E+000	2.83089E-001	0.00000E+000	9	...........	1467.52
	218	2.43455	2.82094E-001	2.53341E-007	0.00000E+000	2.82090E-001	0.00000E+000	9	...........	1467.52
	219	2.44567	2.81081E-001	1.58669E-007	0.00000E+000	2.81090E-001	0.00000E+000	9	...........	1467.52
	220	2.45678	2.80084E-001	1.45538E-007	0.00000E+000	2.80090E-001	0.00000E+000	9	...........	1467.52
	221	2.4679	2.79082E-001	6.78556E-008	0.00000E+000	2.79091E-001	0.00000E+000	9	...........	1467.52
	222	2.47902	2.78092E-001	3.49283E-008	0.00000E+000	2.78091E-001	0.00000E+000	9	...........	1467.52
	223	2.49013	2.77095E-001	-4.46410E-009	0.00000E+000	2.77091E-001	0.00000E+000	9	...........	1467.52
	224	2.50125	2.76096E-001	-6.66600E-008	0.00000E+000	2.76092E-001	0.00000E+000	9	...........	1467.52
	225	2.51237	2.75088E-001	-7.39271E-008	0.00000E+000	2.75092E-001	0.00000E+000	9	...........	1467.52
	226	2.52348	2.74083E-001	-1.52862E-007	0.00000E+000	2.74092E-001	0.00000E+000	9	...........	1467.52
	227	2.5346	2.73072E-001	-1.74413E-007	0.00000E+000	2.73080E-001	0.00000E+000	9	...........	1467.52
	228	2.54572	2.72081E-001	-2.37862E-007	0.00000E+000	2.72081E-001	0.00000E+000	9	...........	1467.52
	229	2.55683	2.71084E-001	-2.39616E-007	0.00000E+000	2.71081E-001	0.00000E+000	9	...........	1467.52
	230	2.56795	2.70088E-001	-3.06773E-007	0.00000E+000	2.70081E-001	0.00000E+000	9	...........	1467.52
	231	2.57907	2.69094E-001	-3.25968E-007	0.00000E+000	2.69082E-001	0.00000E+000	9	...........	1467.52
	232	2.59018	2.68055E-001	-3.57893E-007	0.00000E+000	2.68082E-001	0.00000E+000	9	...........	1467.52
	233	2.6013	2.67056E-001	-4.13975E-007	0.00000E+000	2.67082E-001	0.00000E+000	9	...........	1467.52
	234	2.61242	2.66070E-001	-4.18435E-007	0.00000E+000	2.66083E-001	0.00000E+000	9	...........	1467.52
	235	2.62353	2.65066E-001	-4.87848E-007	0.00000E+000	2.65083E-001	0.00000E+000	9	...........	1467.52
	236	2.63465	2.64075E-001	-4.84991E-007	0.00000E+000	2.64083E-001	0.00000E+000	9	...........	1467.52
	237	2.64577	2.63074E-001	-5.52249E-007	0.00000E+000	2.63084E-001	0.00000E+000	9	...........	1467.52
	238	2.65688	2.62069E-001	-5.49944E-007	0.00000E+000	2.62084E-001	0.00000E+000	9	...........	1467.52
	239	2.668	2.61075E-001	-6.17653E-007	0.00000E+000	2.61084E-001	0.00000E+000	9	...........	1467.52
	240	2.67912	2.60076E-001	-6.37249E-007	0.00000E+000	2.60085E-001	0.00000E+000	9	...........	1467.52
	241	2.69023	2.59088E-001	-6.63260E-007	0.00000E+000	2.59085E-001	0.00000E+000	9	...........	1467.52
	242	2.70135	2.58072E-001	-7.29866E-007	0.00000E+000	2.58073E-001	0.00000E+000	9	...........	1467.52
	243	2.71247	2.57079E-001	-7.14630E-007	0.00000E+000	2.57073E-001	0.00000E+000	9	...........	1467.52
	244	2.72358	2.56070E-001	-7.81287E-007	0.00000E+000	2.56074E-001	0.00000E+000	9	...........	1467.52
	245	2.7347	2.55054E-001	-7.70261E-007	0.00000E+000	2.55074E-001	0.00000E+000	9	...........	1467.52
	246	2.74582	2.54060E-001	-8.41227E-007	0.00000E+000	2.54074E-001	0.00000E+000	9	...........	1467.52
	247	2.75693	2.53061E-001	-8.44084E-007	0.00000E+000	2.53075E-001	0.00000E+000	9	...........	1467.52
	248	2.76805	2.52065E-001	-8.88237E-007	0.00000E+000	2.52075E-001	0.00000E+000	9	...........	1467.52
	249	2.77917	2.51073E-001	-9.12544E-007	0.00000E+000	2.51075E-001	0.00000E+000	9	...........	1467.52
	250	2.79028	2.50071E-001	-9.36401E-007	0.00000E+000	2.50076E-001	0.00000E+000	9	...........	1467.52
	251	2.8014	2.49060E-001	-9.88874E-007	0.00000E+000	2.49076E-001	0.00000E+000	9	...........	1467.52
	252	2.81252	2.48073E-001	-9.85616E-007	0.00000E+000	2.48076E-001	0.00000E+000	9	...........	1467.52
	253	2.82363	2.47079E-001	-1.05317E-006	0.00000E+000	2.47077E-001	0.00000E+000	9	...........	1467.52
	254	2.83475	2.46072E-001	-1.03473E-006	0.00000E+000	2.46077E-001	0.00000E+000	9	...........	1467.52
	255	2.84587	2.45089E-001	-1.10976E-006	0.00000E+000	2.45077E-001	0.00000E+000	9	...........	1467.52
	256	2.85698	2.44098E-001	-1.10154E-006	0.00000E+000	2.44078E-001	0.00000E+000	9	...........	1467.52
	257	2.8681	2.43079E-001	-1.15637E-006	0.00000E+000	2.43066E-001	0.00000E+000	9	...........	1467.52
	258	2.87922	2.42055E-001	-1.17802E-006	0.00000E+000	2.42066E-001	0.00000E+000	9	...........	1467.52
	259	2.89033	2.41067E-001	-1.19571E-006	0.00000E+000	2.41066E-001	0.00000E+000	9	...........	1467.52
	260	2.90145	2.40065E-001	-1.24578E-006	0.00000E+000	2.40067E-001	0.00000E+000	9	...........	1467.52
	261	2.91257	2.39059E-001	-1.23089E-006	0.00000E+000	2.39067E-001	0.00000E+000	9	...........	1467.52
	262	2.92368	2.38063E-001	-1.31203E-006	0.00000E+000	2.38067E-001	0.00000E+000	9	...........	1467.52
	263	2.9348	2.37063E-001	-1.28567E-006	0.00000E+000	2.37068E-001	0.00000E+000	9	...........	1467.52
	264	2.94592	2.36058E-001	-1.35393E-006	0.00000E+000	2.36068E-001	0.00000E+000	9	...........	1467.52
	265	2.95703	2.35071E-001	-1.34411E-006	0.00000E+000	2.35068E-001	0.00000E+000	9	...........	1467.52
	266	2.96815	2.34074E-001	-1.39157E-006	0.00000E+000	2.34069E-001	0.00000E+000	9	...........	1467.52
	267	2.97927	2.33071E-001	-1.42019E-006	0.00000E+000	2.33069E-001	0.00000E+000	9	...........	1467.52
	268	2.99038	2.32081E-001	-1.42725E-006	0.00000E+000	2.32069E-001	0.00000E+000	9	...........	1467.52
	269	3.0015	2.31073E-001	-1.47426E-006	0.00000E+000	2.31070E-001	0.00000E+000	9	...........	1467.52
	270	3.01262	2.30057E-001	-1.46780E-006	0.00000E+000	2.30070E-001	0.00000E+000	9	...........	1467.52
	271	3.02373	2.29063E-001	-1.53741E-006	0.00000E+000	2.29071E-001	0.00000E+000	9	...........	1467.52
	272	3.03485	2.28055E-001	-1.54062E-006	0.00000E+000	2.28058E-001	0.00000E+000	9	...........	1467.52
	273	3.04597	2.27051E-001	-1.58567E-006	0.00000E+000	2.27059E-001	0.00000E+000	9	...........	1467.52
	274	3.05708	2.26041E-001	-1.58668E-006	0.00000E+000	2.26059E-001	0.00000E+000	9	...........	1467.52
	275	3.0682	2.25050E-001	-1.61780E-006	0.00000E+000	2.25059E-001	0.00000E+000	9	...........	1467.52
	276	3.07932	2.24057E-001	-1.65469E-006	0.00000E+000	2.24060E-001	0.00000E+000	9	...........	1467.52
	277	3.09043	2.23061E-001	-1.65874E-006	0.00000E+000	2.23060E-001	0.00000E+000	9	...........	1467.52
	278	3.10155	2.22055E-001	-1.71057E-006	0.00000E+000	2.22060E-001	0.00000E+000	9	...........	1467.52
	279	3.11267	2.21063E-001	-1.69779E-006	0.00000E+000	2.21061E-001	0.00000E+000	9	...........	1467.52
	280	3.12378	2.20060E-001	-1.76760E-006	0.00000E+000	2.20061E-001	0.00000E+000	9	...........	1467.52
	281	3.1349	2.19060E-001	-1.75026E-006	0.00000E+000	2.19062E-001	0.00000E+000	9	...........	1467.52
	282	3.14602	2.18069E-001	-1.80654E-006	0.00000E+000	2.18062E-001	0.00000E+000	9	...........	1467.52
	283	3.15713	2.17050E-001	-1.81326E-006	0.00000E+000	2.17062E-001	0.00000E+000	9	...........	1467.52
	284	3.16825	2.16053E-001	-1.84107E-006	0.00000E+000	2.16063E-001	0.00000E+000	9	...........	1467.52
	285	3.17937	2.15057E-001	-1.87265E-006	0.00000E+000	2.15063E-001	0.00000E+000	9	...........	1467.52
	286	3.19048	2.14033E-001	-1.89625E-006	0.00000E+000	2.14051E-001	0.00000E+000	9	...........	1467.52
	287	3.2016	2.13044E-001	-1.93930E-006	0.00000E+000	2.13051E-001	0.00000E+000	9	...........	1467.52
	288	3.21272	2.12057E-001	-1.91931E-006	0.00000E+000	2.12051E-001	0.00000E+000	9	...........	1467.52
	289	3.22383	2.11055E-001	-1.98912E-006	0.00000E+000	2.11052E-001	0.00000E+000	9	...........	1467.52
	290	3.23495	2.10052E-001	-1.96677E-006	0.00000E+000	2.10052E-001	0.00000E+000	9	...........	1467.52
	291	3.24607	2.09058E-001	-2.02811E-006	0.00000E+000	2.09053E-001	0.00000E+000	9	...........	1467.52
	292	3.25718	2.08062E-001	-2.03478E-006	0.00000E+000	2.08053E-001	0.00000E+000	9	...........	1467.52
	293	3.2683	2.07060E-001	-2.05437E-006	0.00000E+000	2.07053E-001	0.00000E+000	9	...........	1467.52
	294	3.27942	2.06074E-001	-2.09522E-006	0.00000E+000	2.06054E-001	0.00000E+000	9	...........	1467.52
	295	3.29053	2.05080E-001	-2.09086E-006	0.00000E+000	2.05054E-001	0.00000E+000	9	...........	1467.52
	296	3.30165	2.04061E-001	-2.15290E-006	0.00000E+000	2.04054E-001	0.00000E+000	9	...........	1467.52
	297	3.31277	2.03057E-001	-2.13496E-006	0.00000E+000	2.03055E-001	0.00000E+000	9	...........	1467.52
	298	3.32388	2.02060E-001	-2.20508E-006	0.00000E+000	2.02055E-001	0.00000E+000	9	...........	1467.52
	299	3.335	2.01060E-001	-2.19465E-006	0.00000E+000	2.01055E-001	0.00000E+000	9	...........	1467.52
	300	3.34612	2.00071E-001	-2.24858E-006	0.00000E+000	2.00056E-001	0.00000E+000	9	...........	1467.52
	301	3.35723	1.99062E-001	-2.26908E-006	0.00000E+000	1.99043E-001	0.00000E+000	9	...........	1467.52
	302	3.36835	1.98051E-001	-2.27930E-006	0.00000E+000	1.98044E-001	0.00000E+000	9	...........	1467.52
	303	3.37947	1.97056E-001	-2.32446E-006	0.00000E+000	1.97044E-001	0.00000E+000	9	...........	1467.52
	304	3.39058	1.96058E-001	-2.32340E-006	0.00000E+000	1.96045E-001	0.00000E+000	9	...........	1467.52
	305	3.4017	1.95056E-001	-2.38525E-006	0.00000E+000	1.95045E-001	0.00000E+000	9	...........	1467.52
	306	3.41282	1.94061E-001	-2.36300E-006	0.00000E+000	1.94045E-001	0.00000E+000	9	...........	1467.52
	307	3.42393	1.93065E-001	-2.43015E-006	0.00000E+000	1.93046E-001	0.00000E+000	9	...........	1467.52
	308	3.43505	1.92072E-001	-2.42464E-006	0.00000E+000	1.92046E-001	0.00000E+000	9	...........	1467.52
	309	3.44617	1.91034E-001	-2.47737E-006	0.00000E+000	1.91046E-001	0.00000E+000	9	...........	1467.52
	310	3.45728	1.90035E-001	-2.49661E-006	0.00000E+000	1.90047E-001	0.00000E+000	9	...........	1467.52
	311	3.4684	1.89043E-001	-2.51556E-006	0.00000E+000	1.89047E-001	0.00000E+000	9	...........	1467.52
	312	3.47952	1.88051E-001	-2.55304E-006	0.00000E+000	1.88047E-001	0.00000E+000	9	...........	1467.52
	313	3.49063	1.87056E-001	-2.55605E-006	0.00000E+000	1.87048E-001	0.00000E+000	9	...........	1467.52
	314	3.50175	1.86062E-001	-2.62231E-006	0.00000E+000	1.86048E-001	0.00000E+000	9	...........	1467.52
	315	3.51287	1.85049E-001	-2.60948E-006	0.00000E+000	1.85048E-001	0.00000E+000	9	...........	1467.52
	316	3.52398	1.84043E-001	-2.68565E-006	0.00000E+000	1.84036E-001	0.00000E+000	9	...........	1467.52
	317	3.5351	1.83042E-001	-2.65959E-006	0.00000E+000	1.83037E-001	0.00000E+000	9	...........	1467.52
	318	3.54622	1.82050E-001	-2.71212E-006	0.00000E+000	1.82037E-001	0.00000E+000	9	...........	1467.52
	319	3.55733	1.81053E-001	-2.72580E-006	0.00000E+000	1.81037E-001	0.00000E+000	9	...........	1467.52
	320	3.56845	1.80035E-001	-2.74735E-006	0.00000E+000	1.80038E-001	0.00000E+000	9	...........	1467.52
	321	3.57957	1.79028E-001	-2.79311E-006	0.00000E+000	1.79038E-001	0.00000E+000	9	...........	1467.52
	322	3.59068	1.78029E-001	-2.78283E-006	0.00000E+000	1.78038E-001	0.00000E+000	9	...........	1467.52
	323	3.6018	1.77030E-001	-2.85590E-006	0.00000E+000	1.77039E-001	0.00000E+000	9	...........	1467.52
	324	3.61292	1.76050E-001	-2.83846E-006	0.00000E+000	1.76039E-001	0.00000E+000	9	...........	1467.52
	325	3.62403	1.75044E-001	-2.90642E-006	0.00000E+000	1.75039E-001	0.00000E+000	9	...........	1467.52
	326	3.63515	1.74047E-001	-2.89855E-006	0.00000E+000	1.74040E-001	0.00000E+000	9	...........	1467.52
	327	3.64627	1.73048E-001	-2.95494E-006	0.00000E+000	1.73040E-001	0.00000E+000	9	...........	1467.52
	328	3.65738	1.72039E-001	-2.96797E-006	0.00000E+000	1.72040E-001	0.00000E+000	9	...........	1467.52
	329	3.6685	1.71041E-001	-2.99272E-006	0.00000E+000	1.71041E-001	0.00000E+000	9	...........	1467.52
	330	3.67962	1.70057E-001	-3.04174E-006	0.00000E+000	1.70041E-001	0.00000E+000	9	...........	1467.52
	331	3.69073	1.69040E-001	-3.05196E-006	0.00000E+000	1.69029E-001	0.00000E+000	9	...........	1467.52
	332	3.70185	1.68047E-001	-3.10754E-006	0.00000E+000	1.68029E-001	0.00000E+000	9	...........	1467.52
	333	3.71297	1.67043E-001	-3.08940E-006	0.00000E+000	1.67030E-001	0.00000E+000	9	...........	1467.52
	334	3.72408	1.66015E-001	-3.16167E-006	0.00000E+000	1.66030E-001	0.00000E+000	9	...........	1467.62
	335	3.7352	1.65014E-001	-3.15059E-006	0.00000E+000	1.65030E-001	0.00000E+000	9	...........	1467.70
	336	3.74632	1.64030E-001	-3.19620E-006	0.00000E+000	1.64031E-001	0.00000E+000	9	...........	1467.70
	337	3.75743	1.63022E-001	-3.22246E-006	0.00000E+000	1.63031E-001	0.00000E+000	9	...........	1467.70
	338	3.76855	1.62027E-001	-3.23735E-006	0.00000E+000	1.62031E-001	0.00000E+000	9	...........	1467.70
	339	3.77967	1.61030E-001	-3.28501E-006	0.00000E+000	1.61032E-001	0.00000E+000	9	...........	1467.70
	340	3.79078	1.60032E-001	-3.28140E-006	0.00000E+000	1.60032E-001	0.00000E+000	9	...........	1467.70
	341	3.8019	1.59024E-001	-3.35157E-006	0.00000E+000	1.59032E-001	0.00000E+000	9	...........	1467.70
	342	3.81302	1.58037E-001	-3.33513E-006	0.00000E+000	1.58033E-001	0.00000E+000	9	...........	1467.70
	343	3.82413	1.57048E-001	-3.40063E-006	0.00000E+000	1.57033E-001	0.00000E+000	9	...........	1467.70
	344	3.83525	1.56038E-001	-3.39256E-006	0.00000E+000	1.56034E-001	0.00000E+000	9	...........	1467.70
	345	3.84637	1.55034E-001	-3.46774E-006	0.00000E+000	1.55021E-001	0.00000E+000	9	...........	1467.70
	346	3.85748	1.54015E-001	-3.47350E-006	0.00000E+000	1.54022E-001	0.00000E+000	9	...........	1467.70
	347	3.8686	1.53008E-001	-3.48769E-006	0.00000E+000	1.53022E-001	0.00000E+000	9	...........	1467.70
	348	3.87972	1.52016E-001	-3.53354E-006	0.00000E+000	1.52022E-001	0.00000E+000	9	...........	1467.70
	349	3.89083	1.51015E-001	-3.52948E-006	0.00000E+000	1.51023E-001	0.00000E+000	9	...........	1467.70
	350	3.90195	1.50018E-001	-3.60581E-006	0.00000E+000	1.50023E-001	0.00000E+000	9	...........	1467.70
	351	3.91307	1.49028E-001	-3.58331E-006	0.00000E+000	1.49023E-001	0.00000E+000	9	...........	1467.70
	352	3.92418	1.48034E-001	-3.64816E-006	0.00000E+000	1.48024E-001	0.00000E+000	9	...........	1467.70
	353	3.9353	1.47035E-001	-3.64591E-006	0.00000E+000	1.47024E-001	0.00000E+000	9	...........	1467.70
	354	3.94642	1.46030E-001	-3.69312E-006	0.00000E+000	1.46024E-001	0.00000E+000	9	...........	1467.70
	355	3.95753	1.45028E-001	-3.72359E-006	0.00000E+000	1.45025E-001	0.00000E+000	9	...........	1467.70
	356	3.96865	1.44035E-001	-3.73757E-006	0.00000E+000	1.44025E-001	0.00000E+000	9	...........	1467.70
	357	3.97977	1.43043E-001	-3.79521E-006	0.00000E+000	1.43026E-001	0.00000E+000	9	...........	1467.70
	358	3.99088	1.42045E-001	-3.78198E-006	0.00000E+000	1.42026E-001	0.00000E+000	9	...........	1467.70
	359	4.002	1.41051E-001	-3.85590E-006	0.00000E+000	1.41026E-001	0.00000E+000	9	...........	1467.70
	360	4.01312	1.40015E-001	-3.85580E-006	0.00000E+000	1.40014E-001	0.00000E+000	9	...........	1467.70
	361	4.02423	1.39027E-001	-3.90592E-006	0.00000E+000	1.39014E-001	0.00000E+000	9	...........	1467.70
	362	4.03535	1.38020E-001	-3.90862E-006	0.00000E+000	1.38015E-001	0.00000E+000	9	...........	1467.70
	363	4.04647	1.37016E-001	-3.95618E-006	0.00000E+000	1.37015E-001	0.00000E+000	9	...........	1467.70
	364	4.05758	1.36023E-001	-3.97884E-006	0.00000E+000	1.36015E-001	0.00000E+000	9	...........	1467.70
	365	4.0687	1.35024E-001	-3.99798E-006	0.00000E+000	1.35016E-001	0.00000E+000	9	...........	1467.70
	366	4.07982	1.34025E-001	-4.04770E-006	0.00000E+000	1.34016E-001	0.00000E+000	9	...........	1467.70
	367	4.09093	1.33030E-001	-4.04048E-006	0.00000E+000	1.33017E-001	0.00000E+000	9	...........	1467.70
	368	4.10205	1.32041E-001	-4.11085E-006	0.00000E+000	1.32017E-001	0.00000E+000	9	...........	1467.70
	369	4.11317	1.31037E-001	-4.09837E-006	0.00000E+000	1.31017E-001	0.00000E+000	9	...........	1467.70
	370	4.12428	1.30035E-001	-4.16528E-006	0.00000E+000	1.30018E-001	0.00000E+000	9	...........	1467.70
	371	4.1354	1.29030E-001	-4.15981E-006	0.00000E+000	1.29018E-001	0.00000E+000	9	...........	1467.70
	372	4.14652	1.28032E-001	-4.20171E-006	0.00000E+000	1.28018E-001	0.00000E+000	9	...........	1467.70
	373	4.15763	1.27020E-001	-4.24070E-006	0.00000E+000	1.27019E-001	0.00000E+000	9	...........	1467.70
	374	4.16875	1.26018E-001	-4.24697E-006	0.00000E+000	1.26019E-001	0.00000E+000	9	...........	1467.70
	375	4.17987	1.25006E-001	-4.32540E-006	0.00000E+000	1.25007E-001	0.00000E+000	9	...........	1467.70
[...]
	1007	11.2056	2.93086E-001	9.69721E-007	0.00000E+000	2.93098E-001	0.00000E+000	9	...........	1467.52
	1008	11.2167	2.92091E-001	8.33652E-007	0.00000E+000	2.92099E-001	0.00000E+000	9	...........	1467.52
	1009	11.2278	2.91084E-001	7.89198E-007	0.00000E+000	2.91099E-001	0.00000E+000	9	...........	1467.52
	1010	11.2389	2.90094E-001	6.75982E-007	0.00000E+000	2.90099E-001	0.00000E+000	9	...........	1467.52
	1011	11.2501	2.89098E-001	6.28872E-007	0.00000E+000	2.89100E-001	0.00000E+000	9	...........	1467.52
	1012	11.2612	2.88107E-001	5.59158E-007	0.00000E+000	2.88100E-001	0.00000E+000	9	...........	1467.52
	1013	11.2723	2.87084E-001	4.57820E-007	0.00000E+000	2.87088E-001	0.00000E+000	9	...........	1467.52
	1014	11.2834	2.86087E-001	4.39878E-007	0.00000E+000	2.86088E-001	0.00000E+000	9	...........	1467.52
	1015	11.2945	2.85094E-001	3.52273E-007	0.00000E+000	2.85088E-001	0.00000E+000	9	...........	1467.52
	1016	11.3056	2.84092E-001	3.30672E-007	0.00000E+000	2.84089E-001	0.00000E+000	9	...........	1467.52
	1017	11.3168	2.83093E-001	2.34246E-007	0.00000E+000	2.83089E-001	0.00000E+000	9	...........	1467.52
	1018	11.3279	2.82090E-001	2.24724E-007	0.00000E+000	2.82090E-001	0.00000E+000	9	...........	1467.52
	1019	11.339	2.81077E-001	1.42130E-007	0.00000E+000	2.81090E-001	0.00000E+000	9	...........	1467.52
	1020	11.3501	2.80077E-001	1.04842E-007	0.00000E+000	2.80090E-001	0.00000E+000	9	...........	1467.52
	1021	11.3612	2.79075E-001	6.29440E-008	0.00000E+000	2.79091E-001	0.00000E+000	9	...........	1467.52
	1022	11.3723	2.78084E-001	-8.57374E-009	0.00000E+000	2.78091E-001	0.00000E+000	9	...........	1467.52
	1023	11.3835	2.77077E-001	-2.28071E-008	0.00000E+000	2.77091E-001	0.00000E+000	9	...........	1467.52
	1024	11.3946	2.76080E-001	-1.00439E-007	0.00000E+000	2.76092E-001	0.00000E+000	9	...........	1467.52
	1025	11.4057	2.75075E-001	-1.01843E-007	0.00000E+000	2.75092E-001	0.00000E+000	9	...........	1467.52
	1026	11.4168	2.74070E-001	-1.89749E-007	0.00000E+000	2.74092E-001	0.00000E+000	9	...........	1467.52
	1027	11.4279	2.73070E-001	-2.10046E-007	0.00000E+000	2.73080E-001	0.00000E+000	9	...........	1467.52
	1028	11.439	2.72067E-001	-2.57307E-007	0.00000E+000	2.72081E-001	0.00000E+000	9	...........	1467.52
	1029	11.4502	2.71077E-001	-2.77855E-007	0.00000E+000	2.71081E-001	0.00000E+000	9	...........	1467.52
	1030	11.4613	2.70083E-001	-3.21307E-007	0.00000E+000	2.70081E-001	0.00000E+000	9	...........	1467.52
	1031	11.4724	2.69085E-001	-3.73781E-007	0.00000E+000	2.69082E-001	0.00000E+000	9	...........	1467.52
	1032	11.4835	2.68047E-001	-3.77289E-007	0.00000E+000	2.68082E-001	0.00000E+000	9	...........	1467.52
	1033	11.4946	2.67050E-001	-4.49007E-007	0.00000E+000	2.67082E-001	0.00000E+000	9	...........	1467.52
	1034	11.5057	2.66062E-001	-4.42893E-007	0.00000E+000	2.66083E-001	0.00000E+000	9	...........	1467.52
	1035	11.5169	2.65065E-001	-5.29746E-007	0.00000E+000	2.65083E-001	0.00000E+000	9	...........	1467.52
	1036	11.528	2.64064E-001	-5.16064E-007	0.00000E+000	2.64083E-001	0.00000E+000	9	...........	1467.52
	1037	11.5391	2.63064E-001	-5.85728E-007	0.00000E+000	2.63084E-001	0.00000E+000	9	...........	1467.52
	1038	11.5502	2.62057E-001	-5.92143E-007	0.00000E+000	2.62084E-001	0.00000E+000	9	...........	1467.52
	1039	11.5613	2.61064E-001	-6.25671E-007	0.00000E+000	2.61084E-001	0.00000E+000	9	...........	1467.52
	1040	11.5724	2.60068E-001	-6.74787E-007	0.00000E+000	2.60085E-001	0.00000E+000	9	...........	1467.52
	1041	11.5836	2.59088E-001	-6.83557E-007	0.00000E+000	2.59085E-001	0.00000E+000	9	...........	1467.52
	1042	11.5947	2.58067E-001	-7.57731E-007	0.00000E+000	2.58073E-001	0.00000E+000	9	...........	1467.52
	1043	11.6058	2.57066E-001	-7.35028E-007	0.00000E+000	2.57073E-001	0.00000E+000	9	...........	1467.52
	1044	11.6169	2.56058E-001	-8.04792E-007	0.00000E+000	2.56074E-001	0.00000E+000	9	...........	1467.52
	1045	11.628	2.55047E-001	-8.03789E-007	0.00000E+000	2.55074E-001	0.00000E+000	9	...........	1467.52
	1046	11.6391	2.54047E-001	-8.67439E-007	0.00000E+000	2.54074E-001	0.00000E+000	9	...........	1467.52
	1047	11.6503	2.53056E-001	-8.79768E-007	0.00000E+000	2.53075E-001	0.00000E+000	9	...........	1467.52
	1048	11.6614	2.52060E-001	-9.04275E-007	0.00000E+000	2.52075E-001	0.00000E+000	9	...........	1467.52
	1049	11.6725	2.51070E-001	-9.43617E-007	0.00000E+000	2.51075E-001	0.00000E+000	9	...........	1467.52
	1050	11.6836	2.50078E-001	-9.47226E-007	0.00000E+000	2.50076E-001	0.00000E+000	9	...........	1467.52
	1051	11.6947	2.49071E-001	-1.01914E-006	0.00000E+000	2.49076E-001	0.00000E+000	9	...........	1467.52
	1052	11.7058	2.48075E-001	-1.00606E-006	0.00000E+000	2.48076E-001	0.00000E+000	9	...........	1467.52
	1053	11.717	2.47079E-001	-1.07222E-006	0.00000E+000	2.47077E-001	0.00000E+000	9	...........	1467.56
	1054	11.7281	2.46073E-001	-1.06976E-006	0.00000E+000	2.46077E-001	0.00000E+000	9	...........	1467.61
	1055	11.7392	2.45085E-001	-1.12529E-006	0.00000E+000	2.45077E-001	0.00000E+000	9	...........	1467.61
	1056	11.7503	2.44089E-001	-1.13812E-006	0.00000E+000	2.44078E-001	0.00000E+000	9	...........	1467.61
	1057	11.7614	2.43074E-001	-1.17807E-006	0.00000E+000	2.43066E-001	0.00000E+000	9	...........	1467.61
	1058	11.7725	2.42052E-001	-1.20643E-006	0.00000E+000	2.42066E-001	0.00000E+000	9	...........	1467.61
	1059	11.7837	2.41061E-001	-1.20593E-006	0.00000E+000	2.41066E-001	0.00000E+000	9	...........	1467.61
	1060	11.7948	2.40068E-001	-1.27304E-006	0.00000E+000	2.40067E-001	0.00000E+000	9	...........	1467.61
	1061	11.8059	2.39060E-001	-1.25725E-006	0.00000E+000	2.39067E-001	0.00000E+000	9	...........	1467.61
	1062	11.817	2.38065E-001	-1.33088E-006	0.00000E+000	2.38067E-001	0.00000E+000	9	...........	1467.61
	1063	11.8281	2.37066E-001	-1.31509E-006	0.00000E+000	2.37068E-001	0.00000E+000	9	...........	1467.61
	1064	11.8392	2.36061E-001	-1.37147E-006	0.00000E+000	2.36068E-001	0.00000E+000	9	...........	1467.61
	1065	11.8504	2.35068E-001	-1.38114E-006	0.00000E+000	2.35068E-001	0.00000E+000	9	...........	1467.61
	1066	11.8615	2.34077E-001	-1.41217E-006	0.00000E+000	2.34069E-001	0.00000E+000	9	...........	1467.61
	1067	11.8726	2.33071E-001	-1.44735E-006	0.00000E+000	2.33069E-001	0.00000E+000	9	...........	1467.61
	1068	11.8837	2.32079E-001	-1.43998E-006	0.00000E+000	2.32069E-001	0.00000E+000	9	...........	1467.61
	1069	11.8948	2.31066E-001	-1.50794E-006	0.00000E+000	2.31070E-001	0.00000E+000	9	...........	1467.61
	1070	11.9059	2.30059E-001	-1.48323E-006	0.00000E+000	2.30070E-001	0.00000E+000	9	...........	1467.61
	1071	11.9171	2.29057E-001	-1.55736E-006	0.00000E+000	2.29071E-001	0.00000E+000	9	...........	1467.61
	1072	11.9282	2.28050E-001	-1.56457E-006	0.00000E+000	2.28058E-001	0.00000E+000	9	...........	1467.61
	1073	11.9393	2.27046E-001	-1.60201E-006	0.00000E+000	2.27059E-001	0.00000E+000	9	...........	1467.61
	1074	11.9504	2.26044E-001	-1.61730E-006	0.00000E+000	2.26059E-001	0.00000E+000	9	...........	1467.61
	1075	11.9615	2.25048E-001	-1.63604E-006	0.00000E+000	2.25059E-001	0.00000E+000	9	...........	1467.61
	1076	11.9727	2.24059E-001	-1.66822E-006	0.00000E+000	2.24060E-001	0.00000E+000	9	...........	1467.61
	1077	11.9838	2.23056E-001	-1.67198E-006	0.00000E+000	2.23060E-001	0.00000E+000	9	...........	1467.61
	1078	11.9949	2.22059E-001	-1.73312E-006	0.00000E+000	2.22060E-001	0.00000E+000	9	...........	1467.61
	1079	12.006	2.21074E-001	-1.70926E-006	0.00000E+000	2.21061E-001	0.00000E+000	9	...........	1467.61
	1080	12.0171	2.20060E-001	-1.77913E-006	0.00000E+000	2.20061E-001	0.00000E+000	9	...........	1467.61
	1081	12.0282	2.19051E-001	-1.76835E-006	0.00000E+000	2.19062E-001	0.00000E+000	9	...........	1467.61
	1082	12.0394	2.18057E-001	-1.81636E-006	0.00000E+000	2.18062E-001	0.00000E+000	9	...........	1467.61
	1083	12.0505	2.17037E-001	-1.83456E-006	0.00000E+000	2.17062E-001	0.00000E+000	9	...........	1467.61
	1084	12.0616	2.16039E-001	-1.84954E-006	0.00000E+000	2.16063E-001	0.00000E+000	9	...........	1467.61
	1085	12.0727	2.15037E-001	-1.89084E-006	0.00000E+000	2.15063E-001	0.00000E+000	9	...........	1467.61
	1086	12.0838	2.14017E-001	-1.90417E-006	0.00000E+000	2.14051E-001	0.00000E+000	9	...........	1467.61
	1087	12.0949	2.13028E-001	-1.95679E-006	0.00000E+000	2.13051E-001	0.00000E+000	9	...........	1467.61
	1088	12.1061	2.12043E-001	-1.93023E-006	0.00000E+000	2.12051E-001	0.00000E+000	9	...........	1467.61
	1089	12.1172	2.11041E-001	-1.99599E-006	0.00000E+000	2.11052E-001	0.00000E+000	9	...........	1467.61
	1090	12.1283	2.10042E-001	-1.99408E-006	0.00000E+000	2.10052E-001	0.00000E+000	9	...........	1467.61
	1091	12.1394	2.09049E-001	-2.04209E-006	0.00000E+000	2.09053E-001	0.00000E+000	9	...........	1467.61
	1092	12.1505	2.08053E-001	-2.05708E-006	0.00000E+000	2.08053E-001	0.00000E+000	9	...........	1467.61
	1093	12.1616	2.07042E-001	-2.07918E-006	0.00000E+000	2.07053E-001	0.00000E+000	9	...........	1467.61
	1094	12.1728	2.06055E-001	-2.11492E-006	0.00000E+000	2.06054E-001	0.00000E+000	9	...........	1467.61
	1095	12.1839	2.05064E-001	-2.11777E-006	0.00000E+000	2.05054E-001	0.00000E+000	9	...........	1467.61
	1096	12.195	2.04046E-001	-2.18252E-006	0.00000E+000	2.04054E-001	0.00000E+000	9	...........	1467.61
	1097	12.2061	2.03043E-001	-2.16268E-006	0.00000E+000	2.03055E-001	0.00000E+000	9	...........	1467.61
	1098	12.2172	2.02050E-001	-2.22217E-006	0.00000E+000	2.02055E-001	0.00000E+000	9	...........	1467.61
	1099	12.2283	2.01051E-001	-2.21670E-006	0.00000E+000	2.01055E-001	0.00000E+000	9	...........	1467.61
	1100	12.2395	2.00065E-001	-2.26617E-006	0.00000E+000	2.00056E-001	0.00000E+000	9	...........	1467.61
	1101	12.2506	1.99057E-001	-2.29744E-006	0.00000E+000	1.99043E-001	0.00000E+000	9	...........	1467.61
	1102	12.2617	1.98046E-001	-2.30576E-006	0.00000E+000	1.98044E-001	0.00000E+000	9	...........	1467.61
	1103	12.2728	1.97047E-001	-2.34927E-006	0.00000E+000	1.97044E-001	0.00000E+000	9	...........	1467.61
	1104	12.2839	1.96048E-001	-2.34440E-006	0.00000E+000	1.96045E-001	0.00000E+000	9	...........	1467.61
	1105	12.295	1.95049E-001	-2.40169E-006	0.00000E+000	1.95045E-001	0.00000E+000	9	...........	1467.61
	1106	12.3062	1.94058E-001	-2.38575E-006	0.00000E+000	1.94045E-001	0.00000E+000	9	...........	1467.61
	1107	12.3173	1.93066E-001	-2.45667E-006	0.00000E+000	1.93046E-001	0.00000E+000	9	...........	1467.61
	1108	12.3284	1.92065E-001	-2.44334E-006	0.00000E+000	1.92046E-001	0.00000E+000	9	...........	1467.61
	1109	12.3395	1.91038E-001	-2.49471E-006	0.00000E+000	1.91046E-001	0.00000E+000	9	...........	1467.61
	1110	12.3506	1.90041E-001	-2.52157E-006	0.00000E+000	1.90047E-001	0.00000E+000	9	...........	1467.61
	1111	12.3617	1.89042E-001	-2.53861E-006	0.00000E+000	1.89047E-001	0.00000E+000	9	...........	1467.61
	1112	12.3729	1.88050E-001	-2.58612E-006	0.00000E+000	1.88047E-001	0.00000E+000	9	...........	1467.61
	1113	12.384	1.87055E-001	-2.58251E-006	0.00000E+000	1.87048E-001	0.00000E+000	9	...........	1467.61
	1114	12.3951	1.86056E-001	-2.64721E-006	0.00000E+000	1.86048E-001	0.00000E+000	9	...........	1467.61
	1115	12.4062	1.85053E-001	-2.62321E-006	0.00000E+000	1.85048E-001	0.00000E+000	9	...........	1467.61
	1116	12.4173	1.84042E-001	-2.70500E-006	0.00000E+000	1.84036E-001	0.00000E+000	9	...........	1467.61
	1117	12.4284	1.83051E-001	-2.68841E-006	0.00000E+000	1.83037E-001	0.00000E+000	9	...........	1467.61
	1118	12.4396	1.82047E-001	-2.73738E-006	0.00000E+000	1.82037E-001	0.00000E+000	9	...........	1467.61
	1119	12.4507	1.81047E-001	-2.76258E-006	0.00000E+000	1.81037E-001	0.00000E+000	9	...........	1467.61
	1120	12.4618	1.80033E-001	-2.77622E-006	0.00000E+000	1.80038E-001	0.00000E+000	9	...........	1467.61
	1121	12.4729	1.79022E-001	-2.81671E-006	0.00000E+000	1.79038E-001	0.00000E+000	9	...........	1467.61
	1122	12.484	1.78029E-001	-2.81942E-006	0.00000E+000	1.78038E-001	0.00000E+000	9	...........	1467.61
	1123	12.4951	1.77030E-001	-2.88252E-006	0.00000E+000	1.77039E-001	0.00000E+000	9	...........	1467.61
	1124	12.5063	1.76045E-001	-2.86763E-006	0.00000E+000	1.76039E-001	0.00000E+000	9	...........	1467.61
	1125	12.5174	1.75042E-001	-2.93744E-006	0.00000E+000	1.75039E-001	0.00000E+000	9	...........	1467.61
	1126	12.5285	1.74038E-001	-2.93068E-006	0.00000E+000	1.74040E-001	0.00000E+000	9	...........	1467.61
	1127	12.5396	1.73045E-001	-2.97473E-006	0.00000E+000	1.73040E-001	0.00000E+000	9	...........	1467.61
	1128	12.5507	1.72036E-001	-3.00160E-006	0.00000E+000	1.72040E-001	0.00000E+000	9	...........	1467.61
	1129	12.5618	1.71037E-001	-3.01628E-006	0.00000E+000	1.71041E-001	0.00000E+000	9	...........	1467.61
	1130	12.573	1.70050E-001	-3.06289E-006	0.00000E+000	1.70041E-001	0.00000E+000	9	...........	1467.61
	1131	12.5841	1.69037E-001	-3.07261E-006	0.00000E+000	1.69029E-001	0.00000E+000	9	...........	1467.61
	1132	12.5952	1.68039E-001	-3.13305E-006	0.00000E+000	1.68029E-001	0.00000E+000	9	...........	1467.61
	1133	12.6063	1.67041E-001	-3.10429E-006	0.00000E+000	1.67030E-001	0.00000E+000	9	...........	1467.61
	1134	12.6174	1.66009E-001	-3.18297E-006	0.00000E+000	1.66030E-001	0.00000E+000	9	...........	1467.61
	1135	12.6285	1.65021E-001	-3.16518E-006	0.00000E+000	1.65030E-001	0.00000E+000	9	...........	1467.61
	1136	12.6397	1.64028E-001	-3.22372E-006	0.00000E+000	1.64031E-001	0.00000E+000	9	...........	1467.61
	1137	12.6508	1.63019E-001	-3.23875E-006	0.00000E+000	1.63031E-001	0.00000E+000	9	...........	1467.61
	1138	12.6619	1.62020E-001	-3.25489E-006	0.00000E+000	1.62031E-001	0.00000E+000	9	...........	1467.61
	1139	12.673	1.61030E-001	-3.30375E-006	0.00000E+000	1.61032E-001	0.00000E+000	9	...........	1467.61
	1140	12.6841	1.60031E-001	-3.29924E-006	0.00000E+000	1.60032E-001	0.00000E+000	9	...........	1467.61
	1141	12.6952	1.59028E-001	-3.37668E-006	0.00000E+000	1.59032E-001	0.00000E+000	9	...........	1467.61
	1142	12.7064	1.58041E-001	-3.35081E-006	0.00000E+000	1.58033E-001	0.00000E+000	9	...........	1467.61
	1143	12.7175	1.57054E-001	-3.42003E-006	0.00000E+000	1.57033E-001	0.00000E+000	9	...........	1467.61
	1144	12.7286	1.56047E-001	-3.41491E-006	0.00000E+000	1.56034E-001	0.00000E+000	9	...........	1467.61
	1145	12.7397	1.55037E-001	-3.48388E-006	0.00000E+000	1.55021E-001	0.00000E+000	9	...........	1467.61
	1146	12.7508	1.54025E-001	-3.49811E-006	0.00000E+000	1.54022E-001	0.00000E+000	9	...........	1467.61
	1147	12.7619	1.53017E-001	-3.51034E-006	0.00000E+000	1.53022E-001	0.00000E+000	9	...........	1467.61
	1148	12.7731	1.52020E-001	-3.55805E-006	0.00000E+000	1.52022E-001	0.00000E+000	9	...........	1467.61
	1149	12.7842	1.51019E-001	-3.56011E-006	0.00000E+000	1.51023E-001	0.00000E+000	9	...........	1467.61
	1150	12.7953	1.50028E-001	-3.62416E-006	0.00000E+000	1.50023E-001	0.00000E+000	9	...........	1467.61
	1151	12.8064	1.49031E-001	-3.60762E-006	0.00000E+000	1.49023E-001	0.00000E+000	9	...........	1467.61
	1152	12.8175	1.48033E-001	-3.67046E-006	0.00000E+000	1.48024E-001	0.00000E+000	9	...........	1467.61
	1153	12.8286	1.47034E-001	-3.66961E-006	0.00000E+000	1.47024E-001	0.00000E+000	9	...........	1467.61
	1154	12.8398	1.46022E-001	-3.72118E-006	0.00000E+000	1.46024E-001	0.00000E+000	9	...........	1467.61
	1155	12.8509	1.45026E-001	-3.74163E-006	0.00000E+000	1.45025E-001	0.00000E+000	9	...........	1467.61
	1156	12.862	1.44030E-001	-3.75627E-006	0.00000E+000	1.44025E-001	0.00000E+000	9	...........	1467.61
	1157	12.8731	1.43038E-001	-3.81696E-006	0.00000E+000	1.43026E-001	0.00000E+000	9	...........	1467.61
	1158	12.8842	1.42043E-001	-3.80709E-006	0.00000E+000	1.42026E-001	0.00000E+000	9	...........	1467.61
	1159	12.8953	1.41036E-001	-3.87354E-006	0.00000E+000	1.41026E-001	0.00000E+000	9	...........	1467.61
	1160	12.9065	1.40009E-001	-3.87690E-006	0.00000E+000	1.40014E-001	0.00000E+000	9	...........	1467.61
	1161	12.9176	1.39011E-001	-3.93068E-006	0.00000E+000	1.39014E-001	0.00000E+000	9	...........	1467.61
	1162	12.9287	1.38016E-001	-3.93128E-006	0.00000E+000	1.38015E-001	0.00000E+000	9	...........	1467.61
	1163	12.9398	1.37014E-001	-3.97769E-006	0.00000E+000	1.37015E-001	0.00000E+000	9	...........	1467.61
	1164	12.9509	1.36019E-001	-4.00009E-006	0.00000E+000	1.36015E-001	0.00000E+000	9	...........	1467.61
	1165	12.962	1.35014E-001	-4.01307E-006	0.00000E+000	1.35016E-001	0.00000E+000	9	...........	1467.61
	1166	12.9732	1.34019E-001	-4.07171E-006	0.00000E+000	1.34016E-001	0.00000E+000	9	...........	1467.61
	1167	12.9843	1.33028E-001	-4.06509E-006	0.00000E+000	1.33017E-001	0.00000E+000	9	...........	1467.61
	1168	12.9954	1.32025E-001	-4.13064E-006	0.00000E+000	1.32017E-001	0.00000E+000	9	...........	1467.61
	1169	13.0065	1.31027E-001	-4.12458E-006	0.00000E+000	1.31017E-001	0.00000E+000	9	...........	1467.61
	1170	13.0176	1.30022E-001	-4.19214E-006	0.00000E+000	1.30018E-001	0.00000E+000	9	...........	1467.61
	1171	13.0287	1.29023E-001	-4.18272E-006	0.00000E+000	1.29018E-001	0.00000E+000	9	...........	1467.61
	1172	13.0399	1.28023E-001	-4.23509E-006	0.00000E+000	1.28018E-001	0.00000E+000	9	...........	1467.61
	1173	13.051	1.27012E-001	-4.26305E-006	0.00000E+000	1.27019E-001	0.00000E+000	9	...........	1467.61
	1174	13.0621	1.26016E-001	-4.27298E-006	0.00000E+000	1.26019E-001	0.00000E+000	9	...........	1467.61
	1175	13.0732	1.25003E-001	-4.34986E-006	0.00000E+000	1.25007E-001	0.00000E+000	9	...........	1467.61
	1176	13.0843	1.24004E-001	-4.32054E-006	0.00000E+000	1.24007E-001	0.00000E+000	9	...........	1467.61
	1177	13.0954	1.23004E-001	-4.40158E-006	0.00000E+000	1.23008E-001	0.00000E+000	9	...........	1467.61
	1178	13.1066	1.22015E-001	-4.38324E-006	0.00000E+000	1.22008E-001	0.00000E+000	9	...........	1467.61
	1179	13.1177	1.21012E-001	-4.45049E-006	0.00000E+000	1.21008E-001	0.00000E+000	9	...........	1467.61
	1180	13.1288	1.20011E-001	-4.44919E-006	0.00000E+000	1.20009E-001	0.00000E+000	9	...........	1467.61
	1181	13.1399	1.19016E-001	-4.50161E-006	0.00000E+000	1.19009E-001	0.00000E+000	9	...........	1467.61
	1182	13.151	1.18011E-001	-4.51885E-006	0.00000E+000	1.18009E-001	0.00000E+000	9	...........	1467.61
	1183	13.1621	1.17013E-001	-4.53620E-006	0.00000E+000	1.17010E-001	0.00000E+000	9	...........	1467.61
	1184	13.1733	1.16022E-001	-4.59378E-006	0.00000E+000	1.16010E-001	0.00000E+000	9	...........	1467.61
	1185	13.1844	1.15013E-001	-4.58511E-006	0.00000E+000	1.15010E-001	0.00000E+000	9	...........	1467.61
	1186	13.1955	1.13995E-001	-4.66144E-006	0.00000E+000	1.14011E-001	0.00000E+000	9	...........	1467.61
	1187	13.2066	1.13004E-001	-4.64315E-006	0.00000E+000	1.13011E-001	0.00000E+000	9	...........	1467.61
	1188	13.2177	1.11995E-001	-4.72118E-006	0.00000E+000	1.12011E-001	0.00000E+000	9	...........	1467.61
	1189	13.2288	1.11007E-001	-4.71291E-006	0.00000E+000	1.11012E-001	0.00000E+000	9	...........	1467.61
	1190	13.24	1.09996E-001	-4.77942E-006	0.00000E+000	1.10000E-001	0.00000E+000	9	...........	1467.61
	1191	13.2511	1.09001E-001	-4.79325E-006	0.00000E+000	1.09000E-001	0.00000E+000	9	...........	1467.61
	1192	13.2622	1.07991E-001	-4.81109E-006	0.00000E+000	1.08000E-001	0.00000E+000	9	...........	1467.61
	1193	13.2733	1.06991E-001	-4.86271E-006	0.00000E+000	1.07001E-001	0.00000E+000	9	...........	1467.61
	1194	13.2844	1.05997E-001	-4.85895E-006	0.00000E+000	1.06001E-001	0.00000E+000	9	...........	1467.61
	1195	13.2955	1.04992E-001	-4.93453E-006	0.00000E+000	1.05001E-001	0.00000E+000	9	...........	1467.61
	1196	13.3067	1.04003E-001	-4.91368E-006	0.00000E+000	1.04002E-001	0.00000E+000	9	...........	1467.61
	1197	13.3178	1.03015E-001	-4.98410E-006	0.00000E+000	1.03002E-001	0.00000E+000	9	...........	1467.61
	1198	13.3289	1.01996E-001	-4.97959E-006	0.00000E+000	1.02002E-001	0.00000E+000	9	...........	1467.61
	1199	13.34	1.00993E-001	-5.03537E-006	0.00000E+000	1.01003E-001	0.00000E+000	9	...........	1467.61
	1200	13.3511	9.99971E-002	-5.06138E-006	0.00000E+000	1.00003E-001	0.00000E+000	9	...........	1467.61
CURVE4	TABLE
	Pt	T	Vf	Im	Vu	Sig	Ach	IERange	Over	Temp
	#	s	V vs. Ref.	A	V	V	V	#	bits	deg C
	1201	13.3622	9.99783E-002	-3.73782E-006	0.00000E+000	1.00003E-001	0.00000E+000	9	...........	1467.61