File: input/ECSA_test/CV_ECSA_#1_#7.DTA
EXPLAIN
TAG	CV
TITLE	LABEL	ECSA	Test Identifier
DATE	LABEL	2/13/2024	Date
TIME	LABEL	8:49:56	Time
NOTES	NOTES	1	Notes...

PSTAT	PSTAT	IFC1010-36068	Potentiostat
VINIT	POTEN	1.00000E-001	F	Initial E (V)
VLIMIT1	POTEN	3.00000E-001	F	Scan Limit 1 (V)
VLIMIT2	POTEN	1.00000E-001	F	Scan Limit 2 (V)
VFINAL	POTEN	1.00000E-001	F	Final E (V)
SCANRATE	QUANT	6.99999E+001	A Real Number
STEPSIZE	QUANT	1.00000E+000	Step Size (mV)
CYCLES	IQUANT	3	Cycles (#)
IMODE	SELECTOR	1	I/E Range Mode
IRANGE	QUANT	3.00000E-001	Max Current (mA)
AREA	QUANT	1.00000E+000	Sample Area (cm^2)
EQDELAY	QUANT	0.00000E+000	Equil. Time (s)
IRCOMP	SELECTOR	0	IRComp
PFCOR	QUANT	5.00000E+001	PF Corr. (ohm)
SAMPLINGMODE	SELECTOR	2	Sampling Mode
EOC	QUANT	0.3246219	Open Circuit (V)
ELECTRODETYPE	SELECTOR	0	Electrode Type
STRIPPING	TOGGLE	F	Used for Stripping
SEQUENCER	TOGGLE	TRUE	Run as Sequence
PSTATMODEL	IQUANT	64	Pstat Model
PSTATSECTION	LABEL	IFC1010-36068	Pstat Section
PSTATSERIALNO	LABEL	36068	Pstat Serial Number
CTRLMODE	IQUANT	1	Control Mode
ELECTROMETER	IQUANT	0	RE=0 or CS=1
IESTAB	IQUANT	2	I/E Stability
CASPEED	IQUANT	4	Control Amp Speed
CONVENTION	IQUANT	1	Current Convention
ICHRANGE	IQUANT	2	Ich Range
ICHRANGEMODE	TOGGLE	F	Ich Auto Range
ICHOFFSETENABLE	TOGGLE	F	Ich Offset Enable
ICHOFFSET	QUANT	0	Ich Offset (V)
ICHFILTER	IQUANT	3	Ich Filter
VCHRANGE	IQUANT	2	Vch Range
VCHRANGEMODE	TOGGLE	F	Vch Auto Range
VCHOFFSETENABLE	TOGGLE	F	Vch Offset Enable
VCHOFFSET	QUANT	0	Vch Offset (V)
VCHFILTER	IQUANT	3	Vch Filter
IERANGELOWERLIMIT	IQUANT	4	I/E Range Lower Limit
IERANGEMODE	TOGGLE	F	I/E AutoRange
IERANGE	IQUANT	9	I/E Range
ACHSELECT	IQUANT	0	Ach Select
ACHRANGE	IQUANT	2	Ach Range
ACHOFFSETENABLE	TOGGLE	F	Ach Offset Enable
ACHOFFSET	QUANT	0	Ach Offset (V)
ACHFILTER	IQUANT	1	Ach Filter
SENSECABLEID	IQUANT	13	Sense Cable ID
PWRCABLEID	IQUANT	13	Power Cable ID
DCCALDATE	LABEL	8/11/2023	DC Calibration Date
ACCALDATE	LABEL	6/2/2023	AC Calibration Date
FRAMEWORKVERSION	LABEL	7.10.3	Framework Version
INSTRUMENTVERSION	LABEL	4.91	Instrument Version
COMMVERSION	LABEL	3.10	Communications Version
CPUPLDVERSION	LABEL	2.22	CPU PLD Version
CTRLPLDVERSION	LABEL	0.00	CTRL PLD Version
PSTATPLDVERSION	LABEL	0.00	PSTAT PLD Version
CURVE1	TABLE
	Pt	T	Vf	Im	Vu	Sig	Ach	IERange	Over	Temp
	#	s	V vs. Ref.	A	V	V	V	#	bits	deg C
	0	0.014283	9.99963E-002	-1.03254E-005	0.00000E+000	1.00003E-001	0.00000E+000	9	...........	1467.79
	1	0.028567	1.00978E-001	-9.08283E-006	0.00000E+000	1.01003E-001	0.00000E+000	9	...........	1467.79
	2	0.04285	1.01982E-001	-8.80112E-006	0.00000E+000	1.02002E-001	0.00000E+000	9	...........	1467.79
	3	0.057133	1.02995E-001	-8.60626E-006	0.00000E+000	1.03002E-001	0.00000E+000	9	...........	1467.79
	4	0.071417	1.03991E-001	-8.41108E-006	0.00000E+000	1.04002E-001	0.00000E+000	9	...........	1467.79
	5	0.0857	1.04974E-001	-8.21236E-006	0.00000E+000	1.05001E-001	0.00000E+000	9	...........	1467.79
	6	0.099983	1.05973E-001	-8.06431E-006	0.00000E+000	1.06001E-001	0.00000E+000	9	...........	1467.79
	7	0.114267	1.06969E-001	-7.91833E-006	0.00000E+000	1.07001E-001	0.00000E+000	9	...........	1467.79
	8	0.12855	1.07970E-001	-7.74475E-006	0.00000E+000	1.08000E-001	0.00000E+000	9	...........	1467.79
	9	0.142833	1.08974E-001	-7.59822E-006	0.00000E+000	1.09000E-001	0.00000E+000	9	...........	1467.79
	10	0.157117	1.09970E-001	-7.46842E-006	0.00000E+000	1.10000E-001	0.00000E+000	9	...........	1467.79
	11	0.1714	1.10966E-001	-7.32497E-006	0.00000E+000	1.10999E-001	0.00000E+000	9	...........	1467.79
	12	0.185683	1.11964E-001	-7.16422E-006	0.00000E+000	1.11999E-001	0.00000E+000	9	...........	1467.79
	13	0.199967	1.12961E-001	-7.04006E-006	0.00000E+000	1.12999E-001	0.00000E+000	9	...........	1467.79
	14	0.21425	1.13954E-001	-6.91946E-006	0.00000E+000	1.13998E-001	0.00000E+000	9	...........	1467.79
	15	0.228533	1.14971E-001	-6.77219E-006	0.00000E+000	1.14998E-001	0.00000E+000	9	...........	1467.79
	16	0.242817	1.15983E-001	-6.63740E-006	0.00000E+000	1.15997E-001	0.00000E+000	9	...........	1467.79
	17	0.2571	1.16973E-001	-6.52989E-006	0.00000E+000	1.16997E-001	0.00000E+000	9	...........	1467.79
	18	0.271383	1.17961E-001	-6.41529E-006	0.00000E+000	1.17997E-001	0.00000E+000	9	...........	1467.79
	19	0.285667	1.18968E-001	-6.26720E-006	0.00000E+000	1.18996E-001	0.00000E+000	9	...........	1467.79
	20	0.29995	1.19963E-001	-6.16059E-006	0.00000E+000	1.19996E-001	0.00000E+000	9	...........	1467.79
	21	0.314233	1.20962E-001	-6.06033E-006	0.00000E+000	1.20996E-001	0.00000E+000	9	...........	1467.79
	22	0.328517	1.21968E-001	-5.93220E-006	0.00000E+000	1.21995E-001	0.00000E+000	9	...........	1467.79
	23	0.3428	1.22957E-001	-5.80930E-006	0.00000E+000	1.22995E-001	0.00000E+000	9	...........	1467.79
	24	0.357083	1.23953E-001	-5.71216E-006	0.00000E+000	1.23995E-001	0.00000E+000	9	...........	1467.79
	25	0.371367	1.24963E-001	-5.61689E-006	0.00000E+000	1.24994E-001	0.00000E+000	9	...........	1467.79
	26	0.38565	1.25954E-001	-5.48412E-006	0.00000E+000	1.25994E-001	0.00000E+000	9	...........	1467.79
	27	0.399933	1.26953E-001	-5.39279E-006	0.00000E+000	1.26994E-001	0.00000E+000	9	...........	1467.79
	28	0.414217	1.27967E-001	-5.30575E-006	0.00000E+000	1.27993E-001	0.00000E+000	9	...........	1467.79
	29	0.4285	1.28969E-001	-5.18398E-006	0.00000E+000	1.28993E-001	0.00000E+000	9	...........	1467.79
	30	0.442783	1.29971E-001	-5.08274E-006	0.00000E+000	1.29993E-001	0.00000E+000	9	...........	1467.79
	31	0.457067	1.30974E-001	-4.99695E-006	0.00000E+000	1.30992E-001	0.00000E+000	9	...........	1467.79
	32	0.47135	1.31971E-001	-4.90667E-006	0.00000E+000	1.31992E-001	0.00000E+000	9	...........	1467.79
	33	0.485633	1.32968E-001	-4.78560E-006	0.00000E+000	1.32992E-001	0.00000E+000	9	...........	1467.79
	34	0.499917	1.33956E-001	-4.69961E-006	0.00000E+000	1.33991E-001	0.00000E+000	9	...........	1467.79
	35	0.5142	1.34957E-001	-4.62761E-006	0.00000E+000	1.34991E-001	0.00000E+000	9	...........	1467.62
	36	0.528483	1.35955E-001	-4.52084E-006	0.00000E+000	1.35991E-001	0.00000E+000	9	...........	1467.52
	37	0.542767	1.36952E-001	-4.42316E-006	0.00000E+000	1.36990E-001	0.00000E+000	9	...........	1467.52
	38	0.55705	1.37954E-001	-4.35553E-006	0.00000E+000	1.37990E-001	0.00000E+000	9	...........	1467.52
	39	0.571333	1.38958E-001	-4.26548E-006	0.00000E+000	1.38989E-001	0.00000E+000	9	...........	1467.52
	40	0.585617	1.39949E-001	-4.15953E-006	0.00000E+000	1.39989E-001	0.00000E+000	9	...........	1467.52
	41	0.5999	1.40971E-001	-4.08454E-006	0.00000E+000	1.40989E-001	0.00000E+000	9	...........	1467.52
	42	0.614183	1.41966E-001	-4.01663E-006	0.00000E+000	1.41988E-001	0.00000E+000	9	...........	1467.52
	43	0.628467	1.42968E-001	-3.92312E-006	0.00000E+000	1.42988E-001	0.00000E+000	9	...........	1467.52
	44	0.64275	1.43963E-001	-3.83085E-006	0.00000E+000	1.43988E-001	0.00000E+000	9	...........	1467.52
	45	0.657033	1.44956E-001	-3.76186E-006	0.00000E+000	1.44987E-001	0.00000E+000	9	...........	1467.52
	46	0.671317	1.45950E-001	-3.68355E-006	0.00000E+000	1.45987E-001	0.00000E+000	9	...........	1467.52
	47	0.6856	1.46952E-001	-3.58485E-006	0.00000E+000	1.46987E-001	0.00000E+000	9	...........	1467.52
	48	0.699883	1.47959E-001	-3.51371E-006	0.00000E+000	1.47986E-001	0.00000E+000	9	...........	1467.52
	49	0.714167	1.48947E-001	-3.45399E-006	0.00000E+000	1.48986E-001	0.00000E+000	9	...........	1467.52
	50	0.72845	1.49944E-001	-3.36301E-006	0.00000E+000	1.49986E-001	0.00000E+000	9	...........	1467.52
	51	0.742733	1.50944E-001	-3.27756E-006	0.00000E+000	1.50985E-001	0.00000E+000	9	...........	1467.52
	52	0.757017	1.51956E-001	-3.20475E-006	0.00000E+000	1.51997E-001	0.00000E+000	9	...........	1467.52
	53	0.7713	1.52950E-001	-3.14702E-006	0.00000E+000	1.52997E-001	0.00000E+000	9	...........	1467.52
	54	0.785583	1.53962E-001	-3.05686E-006	0.00000E+000	1.53997E-001	0.00000E+000	9	...........	1467.52
	55	0.799867	1.54969E-001	-2.98615E-006	0.00000E+000	1.54996E-001	0.00000E+000	9	...........	1467.52
	56	0.81415	1.55973E-001	-2.93703E-006	0.00000E+000	1.55996E-001	0.00000E+000	9	...........	1467.52
	57	0.828433	1.56976E-001	-2.85365E-006	0.00000E+000	1.56996E-001	0.00000E+000	9	...........	1467.52
	58	0.842717	1.57966E-001	-2.77238E-006	0.00000E+000	1.57995E-001	0.00000E+000	9	...........	1467.52
	59	0.857	1.58950E-001	-2.72108E-006	0.00000E+000	1.58995E-001	0.00000E+000	9	...........	1467.52
	60	0.871283	1.59952E-001	-2.66109E-006	0.00000E+000	1.59995E-001	0.00000E+000	9	...........	1467.52
	61	0.885567	1.60948E-001	-2.56995E-006	0.00000E+000	1.60994E-001	0.00000E+000	9	...........	1467.52
	62	0.89985	1.61949E-001	-2.50677E-006	0.00000E+000	1.61994E-001	0.00000E+000	9	...........	1467.52
	63	0.914133	1.62952E-001	-2.45559E-006	0.00000E+000	1.62994E-001	0.00000E+000	9	...........	1467.52
	64	0.928417	1.63951E-001	-2.37330E-006	0.00000E+000	1.63993E-001	0.00000E+000	9	...........	1467.52
	65	0.9427	1.64933E-001	-2.29873E-006	0.00000E+000	1.64993E-001	0.00000E+000	9	...........	1467.52
	66	0.95698	1.65936E-001	-2.25262E-006	0.00000E+000	1.65993E-001	0.00000E+000	9	...........	1467.52
	67	0.97127	1.66969E-001	-2.19216E-006	0.00000E+000	1.66992E-001	0.00000E+000	9	...........	1467.52
	68	0.98555	1.67971E-001	-2.11069E-006	0.00000E+000	1.67992E-001	0.00000E+000	9	...........	1467.52
	69	0.99983	1.68969E-001	-2.04680E-006	0.00000E+000	1.68991E-001	0.00000E+000	9	...........	1467.52
	70	1.01412	1.69977E-001	-2.00209E-006	0.00000E+000	1.69991E-001	0.00000E+000	9	...........	1467.52
	71	1.0284	1.70958E-001	-1.92631E-006	0.00000E+000	1.70991E-001	0.00000E+000	9	...........	1467.52
	72	1.04268	1.71954E-001	-1.85225E-006	0.00000E+000	1.71990E-001	0.00000E+000	9	...........	1467.52
	73	1.05697	1.72959E-001	-1.81190E-006	0.00000E+000	1.72990E-001	0.00000E+000	9	...........	1467.52
	74	1.07125	1.73958E-001	-1.75386E-006	0.00000E+000	1.73990E-001	0.00000E+000	9	...........	1467.52
	75	1.08553	1.74956E-001	-1.68015E-006	0.00000E+000	1.74989E-001	0.00000E+000	9	...........	1467.52
	76	1.09982	1.75959E-001	-1.61591E-006	0.00000E+000	1.75989E-001	0.00000E+000	9	...........	1467.52
	77	1.1141	1.76942E-001	-1.57233E-006	0.00000E+000	1.76989E-001	0.00000E+000	9	...........	1467.52
	78	1.12838	1.77936E-001	-1.50384E-006	0.00000E+000	1.77988E-001	0.00000E+000	9	...........	1467.52
	79	1.14267	1.78934E-001	-1.42994E-006	0.00000E+000	1.78988E-001	0.00000E+000	9	...........	1467.52
	80	1.15695	1.79945E-001	-1.38714E-006	0.00000E+000	1.79988E-001	0.00000E+000	9	...........	1467.52
	81	1.17123	1.80960E-001	-1.33295E-006	0.00000E+000	1.80987E-001	0.00000E+000	9	...........	1467.52
	82	1.18552	1.81964E-001	-1.25994E-006	0.00000E+000	1.81987E-001	0.00000E+000	9	...........	1467.52
	83	1.1998	1.82958E-001	-1.19559E-006	0.00000E+000	1.82987E-001	0.00000E+000	9	...........	1467.52
	84	1.21408	1.83953E-001	-1.16351E-006	0.00000E+000	1.83986E-001	0.00000E+000	9	...........	1467.52
	85	1.22837	1.84952E-001	-1.10016E-006	0.00000E+000	1.84986E-001	0.00000E+000	9	...........	1467.52
	86	1.24265	1.85955E-001	-1.03323E-006	0.00000E+000	1.85986E-001	0.00000E+000	9	...........	1467.52
	87	1.25693	1.86955E-001	-9.92538E-007	0.00000E+000	1.86985E-001	0.00000E+000	9	...........	1467.52
	88	1.27122	1.87953E-001	-9.40460E-007	0.00000E+000	1.87985E-001	0.00000E+000	9	...........	1467.52
	89	1.2855	1.88942E-001	-8.73921E-007	0.00000E+000	1.88984E-001	0.00000E+000	9	...........	1467.52
	90	1.29978	1.89934E-001	-8.17282E-007	0.00000E+000	1.89984E-001	0.00000E+000	9	...........	1467.52
	91	1.31407	1.90937E-001	-7.85552E-007	0.00000E+000	1.90984E-001	0.00000E+000	9	...........	1467.52
	92	1.32835	1.91975E-001	-7.23846E-007	0.00000E+000	1.91983E-001	0.00000E+000	9	...........	1467.52
	93	1.34263	1.92963E-001	-6.56449E-007	0.00000E+000	1.92983E-001	0.00000E+000	9	...........	1467.52
	94	1.35692	1.93964E-001	-6.23121E-007	0.00000E+000	1.93983E-001	0.00000E+000	9	...........	1467.52
	95	1.3712	1.94952E-001	-5.66171E-007	0.00000E+000	1.94982E-001	0.00000E+000	9	...........	1467.52
	96	1.38548	1.95951E-001	-5.09143E-007	0.00000E+000	1.95982E-001	0.00000E+000	9	...........	1467.52
	97	1.39977	1.96947E-001	-4.44006E-007	0.00000E+000	1.96982E-001	0.00000E+000	9	...........	1467.52
	98	1.41405	1.97951E-001	-4.16252E-007	0.00000E+000	1.97981E-001	0.00000E+000	9	...........	1467.52
	99	1.42833	1.98955E-001	-3.58951E-007	0.00000E+000	1.98981E-001	0.00000E+000	9	...........	1467.52
	100	1.44262	1.99945E-001	-2.98766E-007	0.00000E+000	1.99981E-001	0.00000E+000	9	...........	1467.52
	101	1.4569	2.00932E-001	-2.60877E-007	0.00000E+000	2.00980E-001	0.00000E+000	9	...........	1467.52
	102	1.47118	2.01932E-001	-2.14802E-007	0.00000E+000	2.01980E-001	0.00000E+000	9	...........	1467.52
	103	1.48547	2.02933E-001	-1.56877E-007	0.00000E+000	2.02980E-001	0.00000E+000	9	...........	1467.52
	104	1.49975	2.03929E-001	-1.00590E-007	0.00000E+000	2.03979E-001	0.00000E+000	9	...........	1467.52
	105	1.51403	2.04946E-001	-7.55643E-008	0.00000E+000	2.04979E-001	0.00000E+000	9	...........	1467.52
	106	1.52832	2.05943E-001	-1.53396E-008	0.00000E+000	2.05979E-001	0.00000E+000	9	...........	1467.52
	107	1.5426	2.06935E-001	4.29360E-008	0.00000E+000	2.06978E-001	0.00000E+000	9	...........	1467.52
	108	1.55688	2.07942E-001	8.22671E-008	0.00000E+000	2.07978E-001	0.00000E+000	9	...........	1467.52
	109	1.57117	2.08938E-001	1.22729E-007	0.00000E+000	2.08978E-001	0.00000E+000	9	...........	1467.52
	110	1.58545	2.09939E-001	1.78003E-007	0.00000E+000	2.09977E-001	0.00000E+000	9	...........	1467.52
	111	1.59973	2.10934E-001	2.32225E-007	0.00000E+000	2.10977E-001	0.00000E+000	9	...........	1467.52
	112	1.61402	2.11945E-001	2.48947E-007	0.00000E+000	2.11976E-001	0.00000E+000	9	...........	1467.52
	113	1.6283	2.12929E-001	3.01064E-007	0.00000E+000	2.12976E-001	0.00000E+000	9	...........	1467.52
	114	1.64258	2.13913E-001	3.69162E-007	0.00000E+000	2.13976E-001	0.00000E+000	9	...........	1467.52
	115	1.65687	2.14930E-001	3.93135E-007	0.00000E+000	2.14975E-001	0.00000E+000	9	...........	1467.52
	116	1.67115	2.15925E-001	4.35390E-007	0.00000E+000	2.15975E-001	0.00000E+000	9	...........	1467.52
	117	1.68543	2.16922E-001	4.91561E-007	0.00000E+000	2.16975E-001	0.00000E+000	9	...........	1467.52
	118	1.69972	2.17948E-001	5.45704E-007	0.00000E+000	2.17974E-001	0.00000E+000	9	...........	1467.52
	119	1.714	2.18934E-001	5.64142E-007	0.00000E+000	2.18974E-001	0.00000E+000	9	...........	1467.52
	120	1.72828	2.19934E-001	6.10178E-007	0.00000E+000	2.19974E-001	0.00000E+000	9	...........	1467.52
	121	1.74257	2.20949E-001	6.90321E-007	0.00000E+000	2.20986E-001	0.00000E+000	9	...........	1467.52
	122	1.75685	2.21947E-001	7.07941E-007	0.00000E+000	2.21985E-001	0.00000E+000	9	...........	1467.52
	123	1.77113	2.22944E-001	7.35071E-007	0.00000E+000	2.22985E-001	0.00000E+000	9	...........	1467.52
	124	1.78542	2.23950E-001	7.98024E-007	0.00000E+000	2.23985E-001	0.00000E+000	9	...........	1467.52
	125	1.7997	2.24928E-001	8.48348E-007	0.00000E+000	2.24984E-001	0.00000E+000	9	...........	1467.52
	126	1.81398	2.25935E-001	8.64408E-007	0.00000E+000	2.25984E-001	0.00000E+000	9	...........	1467.52
	127	1.82827	2.26932E-001	9.07052E-007	0.00000E+000	2.26984E-001	0.00000E+000	9	...........	1467.52
	128	1.84255	2.27934E-001	9.66302E-007	0.00000E+000	2.27983E-001	0.00000E+000	9	...........	1467.52
	129	1.85683	2.28938E-001	9.99747E-007	0.00000E+000	2.28983E-001	0.00000E+000	9	...........	1467.52
	130	1.87112	2.29934E-001	1.02984E-006	0.00000E+000	2.29983E-001	0.00000E+000	9	...........	1467.52
	131	1.8854	2.30948E-001	1.07751E-006	0.00000E+000	2.30982E-001	0.00000E+000	9	...........	1467.52
	132	1.89968	2.31952E-001	1.12347E-006	0.00000E+000	2.31982E-001	0.00000E+000	9	...........	1467.52
	133	1.91397	2.32949E-001	1.14238E-006	0.00000E+000	2.32982E-001	0.00000E+000	9	...........	1467.52
	134	1.92825	2.33953E-001	1.17960E-006	0.00000E+000	2.33981E-001	0.00000E+000	9	...........	1467.52
	135	1.94253	2.34934E-001	1.24010E-006	0.00000E+000	2.34981E-001	0.00000E+000	9	...........	1467.52
	136	1.95682	2.35930E-001	1.26146E-006	0.00000E+000	2.35981E-001	0.00000E+000	9	...........	1467.52
	137	1.9711	2.36936E-001	1.28337E-006	0.00000E+000	2.36980E-001	0.00000E+000	9	...........	1467.52
	138	1.98538	2.37935E-001	1.33319E-006	0.00000E+000	2.37980E-001	0.00000E+000	9	...........	1467.52
	139	1.99967	2.38932E-001	1.38047E-006	0.00000E+000	2.38980E-001	0.00000E+000	9	...........	1467.52
	140	2.01395	2.39937E-001	1.39914E-006	0.00000E+000	2.39979E-001	0.00000E+000	9	...........	1467.52
	141	2.02823	2.40921E-001	1.42962E-006	0.00000E+000	2.40979E-001	0.00000E+000	9	...........	1467.52
	142	2.04252	2.41930E-001	1.49269E-006	0.00000E+000	2.41979E-001	0.00000E+000	9	...........	1467.52
	143	2.0568	2.42929E-001	1.51043E-006	0.00000E+000	2.42978E-001	0.00000E+000	9	...........	1467.52
	144	2.07108	2.43950E-001	1.53448E-006	0.00000E+000	2.43978E-001	0.00000E+000	9	...........	1467.52
	145	2.08537	2.44945E-001	1.57970E-006	0.00000E+000	2.44977E-001	0.00000E+000	9	...........	1467.52
	146	2.09965	2.45940E-001	1.62686E-006	0.00000E+000	2.45977E-001	0.00000E+000	9	...........	1467.52
	147	2.11393	2.46934E-001	1.64199E-006	0.00000E+000	2.46977E-001	0.00000E+000	9	...........	1467.52
	148	2.12822	2.47937E-001	1.67535E-006	0.00000E+000	2.47976E-001	0.00000E+000	9	...........	1467.52
	149	2.1425	2.48933E-001	1.72654E-006	0.00000E+000	2.48976E-001	0.00000E+000	9	...........	1467.52
	150	2.15678	2.49937E-001	1.75347E-006	0.00000E+000	2.49976E-001	0.00000E+000	9	...........	1467.52
	151	2.17107	2.50936E-001	1.77203E-006	0.00000E+000	2.50975E-001	0.00000E+000	9	...........	1467.52
	152	2.18535	2.51932E-001	1.81876E-006	0.00000E+000	2.51975E-001	0.00000E+000	9	...........	1467.52
	153	2.19963	2.52925E-001	1.86102E-006	0.00000E+000	2.52975E-001	0.00000E+000	9	...........	1467.52
	154	2.21392	2.53919E-001	1.87474E-006	0.00000E+000	2.53974E-001	0.00000E+000	9	...........	1467.52
	155	2.2282	2.54914E-001	1.90526E-006	0.00000E+000	2.54974E-001	0.00000E+000	9	...........	1467.52
	156	2.24248	2.55925E-001	1.95820E-006	0.00000E+000	2.55974E-001	0.00000E+000	9	...........	1467.52
	157	2.25677	2.56937E-001	1.98225E-006	0.00000E+000	2.56973E-001	0.00000E+000	9	...........	1467.52
	158	2.27105	2.57931E-001	2.00197E-006	0.00000E+000	2.57973E-001	0.00000E+000	9	...........	1467.52
	159	2.28533	2.58929E-001	2.04419E-006	0.00000E+000	2.58973E-001	0.00000E+000	9	...........	1467.52
	160	2.29962	2.59923E-001	2.08882E-006	0.00000E+000	2.59972E-001	0.00000E+000	9	...........	1467.52
	161	2.3139	2.60925E-001	2.10133E-006	0.00000E+000	2.60972E-001	0.00000E+000	9	...........	1467.52
	162	2.32818	2.61915E-001	2.12168E-006	0.00000E+000	2.61972E-001	0.00000E+000	9	...........	1467.52
	163	2.34247	2.62919E-001	2.17867E-006	0.00000E+000	2.62971E-001	0.00000E+000	9	...........	1467.52
	164	2.35675	2.63916E-001	2.20365E-006	0.00000E+000	2.63971E-001	0.00000E+000	9	...........	1467.52
	165	2.37103	2.64918E-001	2.22564E-006	0.00000E+000	2.64970E-001	0.00000E+000	9	...........	1467.52
	166	2.38532	2.65920E-001	2.26903E-006	0.00000E+000	2.65970E-001	0.00000E+000	9	...........	1467.52
	167	2.3996	2.66901E-001	2.30520E-006	0.00000E+000	2.66970E-001	0.00000E+000	9	...........	1467.52
	168	2.41388	2.67903E-001	2.32562E-006	0.00000E+000	2.67969E-001	0.00000E+000	9	...........	1467.52
	169	2.42817	2.68940E-001	2.35018E-006	0.00000E+000	2.68969E-001	0.00000E+000	9	...........	1467.52
	170	2.44245	2.69939E-001	2.40569E-006	0.00000E+000	2.69969E-001	0.00000E+000	9	...........	1467.52
	171	2.45673	2.70929E-001	2.42826E-006	0.00000E+000	2.70968E-001	0.00000E+000	9	...........	1467.52
	172	2.47102	2.71923E-001	2.44650E-006	0.00000E+000	2.71968E-001	0.00000E+000	9	...........	1467.52
	173	2.4853	2.72920E-001	2.48396E-006	0.00000E+000	2.72968E-001	0.00000E+000	9	...........	1467.52
	174	2.49958	2.73923E-001	2.53573E-006	0.00000E+000	2.73967E-001	0.00000E+000	9	...........	1467.52
	175	2.51387	2.74924E-001	2.54454E-006	0.00000E+000	2.74967E-001	0.00000E+000	9	...........	1467.52
	176	2.52815	2.75928E-001	2.57486E-006	0.00000E+000	2.75967E-001	0.00000E+000	9	...........	1467.52
	177	2.54243	2.76921E-001	2.62460E-006	0.00000E+000	2.76966E-001	0.00000E+000	9	...........	1467.52
	178	2.55672	2.77925E-001	2.65166E-006	0.00000E+000	2.77966E-001	0.00000E+000	9	...........	1467.52
	179	2.571	2.78924E-001	2.66818E-006	0.00000E+000	2.78966E-001	0.00000E+000	9	...........	1467.52
	180	2.58528	2.79919E-001	2.70989E-006	0.00000E+000	2.79965E-001	0.00000E+000	9	...........	1467.52
	181	2.59957	2.80913E-001	2.75141E-006	0.00000E+000	2.80965E-001	0.00000E+000	9	...........	1467.52
	182	2.61385	2.81922E-001	2.76719E-006	0.00000E+000	2.81965E-001	0.00000E+000	9	...........	1467.52
	183	2.62813	2.82925E-001	2.78856E-006	0.00000E+000	2.82964E-001	0.00000E+000	9	...........	1467.52
	184	2.64242	2.83934E-001	2.83958E-006	0.00000E+000	2.83964E-001	0.00000E+000	9	...........	1467.52
	185	2.6567	2.84933E-001	2.86804E-006	0.00000E+000	2.84963E-001	0.00000E+000	9	...........	1467.52
	186	2.67098	2.85927E-001	2.88441E-006	0.00000E+000	2.85963E-001	0.00000E+000	9	...........	1467.52
	187	2.68527	2.86921E-001	2.93387E-006	0.00000E+000	2.86963E-001	0.00000E+000	9	...........	1467.52
	188	2.69955	2.87927E-001	2.96907E-006	0.00000E+000	2.87962E-001	0.00000E+000	9	...........	1467.52
	189	2.71383	2.88920E-001	2.99125E-006	0.00000E+000	2.88962E-001	0.00000E+000	9	...........	1467.52
	190	2.72812	2.89931E-001	3.02688E-006	0.00000E+000	2.89974E-001	0.00000E+000	9	...........	1467.52
	191	2.7424	2.90917E-001	3.06691E-006	0.00000E+000	2.90974E-001	0.00000E+000	9	...........	1467.52
	192	2.75668	2.91924E-001	3.09658E-006	0.00000E+000	2.91974E-001	0.00000E+000	9	...........	1467.52
	193	2.77097	2.92924E-001	3.10679E-006	0.00000E+000	2.92973E-001	0.00000E+000	9	...........	1467.52
	194	2.78525	2.93921E-001	3.15333E-006	0.00000E+000	2.93973E-001	0.00000E+000	9	...........	1467.52
	195	2.79953	2.94950E-001	3.19625E-006	0.00000E+000	2.94973E-001	0.00000E+000	9	...........	1467.52
	196	2.81382	2.95945E-001	3.21773E-006	0.00000E+000	2.95972E-001	0.00000E+000	9	...........	1467.52
	197	2.8281	2.96935E-001	3.23675E-006	0.00000E+000	2.96972E-001	0.00000E+000	9	...........	1467.52
	198	2.84238	2.97934E-001	3.28801E-006	0.00000E+000	2.97971E-001	0.00000E+000	9	...........	1467.52
	199	2.85667	2.98938E-001	3.32103E-006	0.00000E+000	2.98971E-001	0.00000E+000	9	...........	1467.52
	200	2.87095	2.99939E-001	3.33677E-006	0.00000E+000	2.99971E-001	0.00000E+000	9	...........	1467.52
	201	2.88523	2.98967E-001	1.38253E-006	0.00000E+000	2.98971E-001	0.00000E+000	9	...........	1467.52
	202	2.89952	2.97971E-001	1.16194E-006	0.00000E+000	2.97971E-001	0.00000E+000	9	...........	1467.52
	203	2.9138	2.96964E-001	9.82050E-007	0.00000E+000	2.96972E-001	0.00000E+000	9	...........	1467.52
	204	2.92808	2.95979E-001	8.39811E-007	0.00000E+000	2.95972E-001	0.00000E+000	9	...........	1467.52
	205	2.94237	2.94982E-001	7.41386E-007	0.00000E+000	2.94973E-001	0.00000E+000	9	...........	1467.52
	206	2.95665	2.93950E-001	6.41908E-007	0.00000E+000	2.93973E-001	0.00000E+000	9	...........	1467.52
	207	2.97093	2.92956E-001	5.18613E-007	0.00000E+000	2.92973E-001	0.00000E+000	9	...........	1467.52
	208	2.98522	2.91957E-001	4.44472E-007	0.00000E+000	2.91974E-001	0.00000E+000	9	...........	1467.52
	209	2.9995	2.90953E-001	3.73762E-007	0.00000E+000	2.90974E-001	0.00000E+000	9	...........	1467.52
	210	3.01378	2.89976E-001	2.79547E-007	0.00000E+000	2.89974E-001	0.00000E+000	9	...........	1467.52
	211	3.02807	2.88962E-001	1.92776E-007	0.00000E+000	2.88962E-001	0.00000E+000	9	...........	1467.52
	212	3.04235	2.87966E-001	1.47871E-007	0.00000E+000	2.87962E-001	0.00000E+000	9	...........	1467.52
	213	3.05663	2.86955E-001	9.18563E-008	0.00000E+000	2.86963E-001	0.00000E+000	9	...........	1467.52
	214	3.07092	2.85957E-001	5.25381E-010	0.00000E+000	2.85963E-001	0.00000E+000	9	...........	1467.52
	215	3.0852	2.84967E-001	-4.96813E-008	0.00000E+000	2.84963E-001	0.00000E+000	9	...........	1467.52
	216	3.09948	2.83970E-001	-9.91863E-008	0.00000E+000	2.83964E-001	0.00000E+000	9	...........	1467.52
	217	3.11377	2.82952E-001	-1.76406E-007	0.00000E+000	2.82964E-001	0.00000E+000	9	...........	1467.52
	218	3.12805	2.81954E-001	-2.33318E-007	0.00000E+000	2.81965E-001	0.00000E+000	9	...........	1467.52
	219	3.14233	2.80942E-001	-2.79470E-007	0.00000E+000	2.80965E-001	0.00000E+000	9	...........	1467.52
	220	3.15662	2.79937E-001	-3.33029E-007	0.00000E+000	2.79965E-001	0.00000E+000	9	...........	1467.52
	221	3.1709	2.78943E-001	-4.07404E-007	0.00000E+000	2.78966E-001	0.00000E+000	9	...........	1467.52
	222	3.18518	2.77950E-001	-4.53635E-007	0.00000E+000	2.77966E-001	0.00000E+000	9	...........	1467.52
	223	3.19947	2.76955E-001	-4.99320E-007	0.00000E+000	2.76966E-001	0.00000E+000	9	...........	1467.52
	224	3.21375	2.75957E-001	-5.61454E-007	0.00000E+000	2.75967E-001	0.00000E+000	9	...........	1467.52
	225	3.22803	2.74947E-001	-6.15676E-007	0.00000E+000	2.74967E-001	0.00000E+000	9	...........	1467.52
	226	3.24232	2.73952E-001	-6.55981E-007	0.00000E+000	2.73967E-001	0.00000E+000	9	...........	1467.52
	227	3.2566	2.72957E-001	-6.92428E-007	0.00000E+000	2.72968E-001	0.00000E+000	9	...........	1467.52
	228	3.27088	2.71958E-001	-7.60137E-007	0.00000E+000	2.71968E-001	0.00000E+000	9	...........	1467.52
	229	3.28517	2.70969E-001	-8.06718E-007	0.00000E+000	2.70968E-001	0.00000E+000	9	...........	1467.52
	230	3.29945	2.69972E-001	-8.40904E-007	0.00000E+000	2.69969E-001	0.00000E+000	9	...........	1467.52
	231	3.31373	2.68979E-001	-8.97114E-007	0.00000E+000	2.68969E-001	0.00000E+000	9	...........	1467.52
	232	3.32802	2.67942E-001	-9.53986E-007	0.00000E+000	2.67969E-001	0.00000E+000	9	...........	1467.52
	233	3.3423	2.66946E-001	-9.94993E-007	0.00000E+000	2.66970E-001	0.00000E+000	9	...........	1467.52
	234	3.35658	2.65958E-001	-1.03066E-006	0.00000E+000	2.65970E-001	0.00000E+000	9	...........	1467.52
	235	3.37087	2.64956E-001	-1.08933E-006	0.00000E+000	2.64970E-001	0.00000E+000	9	...........	1467.52
	236	3.38515	2.63957E-001	-1.13497E-006	0.00000E+000	2.63971E-001	0.00000E+000	9	...........	1467.52
	237	3.39943	2.62958E-001	-1.16121E-006	0.00000E+000	2.62971E-001	0.00000E+000	9	...........	1467.52
	238	3.41372	2.61952E-001	-1.21894E-006	0.00000E+000	2.61972E-001	0.00000E+000	9	...........	1467.52
	239	3.428	2.60960E-001	-1.27082E-006	0.00000E+000	2.60972E-001	0.00000E+000	9	...........	1467.52
	240	3.44228	2.59962E-001	-1.29744E-006	0.00000E+000	2.59972E-001	0.00000E+000	9	...........	1467.52
	241	3.45657	2.58965E-001	-1.33919E-006	0.00000E+000	2.58973E-001	0.00000E+000	9	...........	1467.52
	242	3.47085	2.57972E-001	-1.40051E-006	0.00000E+000	2.57973E-001	0.00000E+000	9	...........	1467.52
	243	3.48513	2.56975E-001	-1.43496E-006	0.00000E+000	2.56973E-001	0.00000E+000	9	...........	1467.52
	244	3.49942	2.55975E-001	-1.45921E-006	0.00000E+000	2.55974E-001	0.00000E+000	9	...........	1467.52
	245	3.5137	2.54958E-001	-1.51951E-006	0.00000E+000	2.54974E-001	0.00000E+000	9	...........	1467.52
	246	3.52798	2.53960E-001	-1.57245E-006	0.00000E+000	2.53974E-001	0.00000E+000	9	...........	1467.52
	247	3.54227	2.52959E-001	-1.60250E-006	0.00000E+000	2.52975E-001	0.00000E+000	9	...........	1467.52
	248	3.55655	2.51970E-001	-1.63295E-006	0.00000E+000	2.51975E-001	0.00000E+000	9	...........	1467.52
	249	3.57083	2.50976E-001	-1.69473E-006	0.00000E+000	2.50975E-001	0.00000E+000	9	...........	1467.52
	250	3.58512	2.49977E-001	-1.74038E-006	0.00000E+000	2.49976E-001	0.00000E+000	9	...........	1467.52
	251	3.5994	2.48970E-001	-1.75729E-006	0.00000E+000	2.48976E-001	0.00000E+000	9	...........	1467.52
	252	3.61368	2.47974E-001	-1.81838E-006	0.00000E+000	2.47976E-001	0.00000E+000	9	...........	1467.52
	253	3.62797	2.46975E-001	-1.87037E-006	0.00000E+000	2.46977E-001	0.00000E+000	9	...........	1467.52
	254	3.64225	2.45978E-001	-1.89965E-006	0.00000E+000	2.45977E-001	0.00000E+000	9	...........	1467.52
	255	3.65653	2.44981E-001	-1.92807E-006	0.00000E+000	2.44977E-001	0.00000E+000	9	...........	1467.52
	256	3.67082	2.43985E-001	-1.99102E-006	0.00000E+000	2.43978E-001	0.00000E+000	9	...........	1467.52
	257	3.6851	2.42973E-001	-2.03129E-006	0.00000E+000	2.42978E-001	0.00000E+000	9	...........	1467.52
	258	3.69938	2.41968E-001	-2.05366E-006	0.00000E+000	2.41979E-001	0.00000E+000	9	...........	1467.52
	259	3.71367	2.40965E-001	-2.10839E-006	0.00000E+000	2.40979E-001	0.00000E+000	9	...........	1467.52
	260	3.72795	2.39972E-001	-2.16136E-006	0.00000E+000	2.39979E-001	0.00000E+000	9	...........	1467.52
	261	3.74223	2.38966E-001	-2.19317E-006	0.00000E+000	2.38980E-001	0.00000E+000	9	...........	1467.52
	262	3.75652	2.37963E-001	-2.22630E-006	0.00000E+000	2.37980E-001	0.00000E+000	9	...........	1467.52
	263	3.7708	2.36966E-001	-2.28746E-006	0.00000E+000	2.36980E-001	0.00000E+000	9	...........	1467.52
	264	3.78508	2.35963E-001	-2.33019E-006	0.00000E+000	2.35981E-001	0.00000E+000	9	...........	1467.52
	265	3.79937	2.34969E-001	-2.34987E-006	0.00000E+000	2.34981E-001	0.00000E+000	9	...........	1467.52
	266	3.81365	2.33990E-001	-2.40756E-006	0.00000E+000	2.33981E-001	0.00000E+000	9	...........	1467.52
	267	3.82793	2.32983E-001	-2.46272E-006	0.00000E+000	2.32982E-001	0.00000E+000	9	...........	1467.52
	268	3.84222	2.31984E-001	-2.49231E-006	0.00000E+000	2.31982E-001	0.00000E+000	9	...........	1467.52
	269	3.8565	2.30976E-001	-2.52505E-006	0.00000E+000	2.30982E-001	0.00000E+000	9	...........	1467.52
	270	3.87078	2.29969E-001	-2.58753E-006	0.00000E+000	2.29983E-001	0.00000E+000	9	...........	1467.52
	271	3.88507	2.28971E-001	-2.63989E-006	0.00000E+000	2.28983E-001	0.00000E+000	9	...........	1467.52
	272	3.89935	2.27970E-001	-2.66226E-006	0.00000E+000	2.27983E-001	0.00000E+000	9	...........	1467.52
	273	3.91363	2.26972E-001	-2.71995E-006	0.00000E+000	2.26984E-001	0.00000E+000	9	...........	1467.52
	274	3.92792	2.25969E-001	-2.77815E-006	0.00000E+000	2.25984E-001	0.00000E+000	9	...........	1467.52
	275	3.9422	2.24969E-001	-2.81343E-006	0.00000E+000	2.24984E-001	0.00000E+000	9	...........	1467.52
	276	3.95648	2.23983E-001	-2.85073E-006	0.00000E+000	2.23985E-001	0.00000E+000	9	...........	1467.52
	277	3.97077	2.22975E-001	-2.91021E-006	0.00000E+000	2.22985E-001	0.00000E+000	9	...........	1467.52
	278	3.98505	2.21980E-001	-2.95956E-006	0.00000E+000	2.21985E-001	0.00000E+000	9	...........	1467.52
	279	3.99933	2.20985E-001	-2.98973E-006	0.00000E+000	2.20986E-001	0.00000E+000	9	...........	1467.52
	280	4.01362	2.19966E-001	-3.05737E-006	0.00000E+000	2.19974E-001	0.00000E+000	9	...........	1467.52
	281	4.0279	2.18966E-001	-3.10800E-006	0.00000E+000	2.18974E-001	0.00000E+000	9	...........	1467.52
	282	4.04218	2.17982E-001	-3.13817E-006	0.00000E+000	2.17974E-001	0.00000E+000	9	...........	1467.52
	283	4.05647	2.16953E-001	-3.18152E-006	0.00000E+000	2.16975E-001	0.00000E+000	9	...........	1467.52
	284	4.07075	2.15949E-001	-3.24244E-006	0.00000E+000	2.15975E-001	0.00000E+000	9	...........	1467.52
	285	4.08503	2.14953E-001	-3.31000E-006	0.00000E+000	2.14975E-001	0.00000E+000	9	...........	1467.52
	286	4.09932	2.13945E-001	-3.33179E-006	0.00000E+000	2.13976E-001	0.00000E+000	9	...........	1467.52
	287	4.1136	2.12958E-001	-3.38932E-006	0.00000E+000	2.12976E-001	0.00000E+000	9	...........	1467.52
	288	4.12788	2.11967E-001	-3.45126E-006	0.00000E+000	2.11976E-001	0.00000E+000	9	...........	1467.52
	289	4.14217	2.10957E-001	-3.49289E-006	0.00000E+000	2.10977E-001	0.00000E+000	9	...........	1467.52
	290	4.15645	2.09960E-001	-3.53254E-006	0.00000E+000	2.09977E-001	0.00000E+000	9	...........	1467.52
	291	4.17073	2.08964E-001	-3.60071E-006	0.00000E+000	2.08978E-001	0.00000E+000	9	...........	1467.52
	292	4.18502	2.07970E-001	-3.66152E-006	0.00000E+000	2.07978E-001	0.00000E+000	9	...........	1467.52
	293	4.1993	2.06969E-001	-3.69009E-006	0.00000E+000	2.06978E-001	0.00000E+000	9	...........	1467.52
	294	4.21358	2.05980E-001	-3.75297E-006	0.00000E+000	2.05979E-001	0.00000E+000	9	...........	1467.52
	295	4.22787	2.04979E-001	-3.82313E-006	0.00000E+000	2.04979E-001	0.00000E+000	9	...........	1467.52
	296	4.24215	2.03968E-001	-3.86149E-006	0.00000E+000	2.03979E-001	0.00000E+000	9	...........	1467.52
	297	4.25643	2.02971E-001	-3.91068E-006	0.00000E+000	2.02980E-001	0.00000E+000	9	...........	1467.52
	298	4.27072	2.01976E-001	-3.97734E-006	0.00000E+000	2.01980E-001	0.00000E+000	9	...........	1467.52
	299	4.285	2.00968E-001	-4.03834E-006	0.00000E+000	2.00980E-001	0.00000E+000	9	...........	1467.52
	300	4.29928	1.99981E-001	-4.07592E-006	0.00000E+000	1.99981E-001	0.00000E+000	9	...........	1467.52
	301	4.31357	1.98983E-001	-4.12913E-006	0.00000E+000	1.98981E-001	0.00000E+000	9	...........	1467.52
	302	4.32785	1.97982E-001	-4.20483E-006	0.00000E+000	1.97981E-001	0.00000E+000	9	...........	1467.52
	303	4.34213	1.96982E-001	-4.25277E-006	0.00000E+000	1.96982E-001	0.00000E+000	9	...........	1467.52
	304	4.35642	1.95977E-001	-4.30107E-006	0.00000E+000	1.95982E-001	0.00000E+000	9	...........	1467.52
	305	4.3707	1.94976E-001	-4.37755E-006	0.00000E+000	1.94982E-001	0.00000E+000	9	...........	1467.52
	306	4.38498	1.93985E-001	-4.43879E-006	0.00000E+000	1.93983E-001	0.00000E+000	9	...........	1467.52
	307	4.39927	1.92997E-001	-4.47259E-006	0.00000E+000	1.92983E-001	0.00000E+000	9	...........	1467.52
	308	4.41355	1.91995E-001	-4.52825E-006	0.00000E+000	1.91983E-001	0.00000E+000	9	...........	1467.52
	309	4.42783	1.90967E-001	-4.61327E-006	0.00000E+000	1.90984E-001	0.00000E+000	9	...........	1467.52
	310	4.44212	1.89968E-001	-4.65914E-006	0.00000E+000	1.89984E-001	0.00000E+000	9	...........	1467.52
	311	4.4564	1.88973E-001	-4.71029E-006	0.00000E+000	1.88984E-001	0.00000E+000	9	...........	1467.52
	312	4.47068	1.87978E-001	-4.78903E-006	0.00000E+000	1.87985E-001	0.00000E+000	9	...........	1467.52
	313	4.48497	1.86984E-001	-4.85561E-006	0.00000E+000	1.86985E-001	0.00000E+000	9	...........	1467.52
	314	4.49925	1.85984E-001	-4.90059E-006	0.00000E+000	1.85986E-001	0.00000E+000	9	...........	1467.52
	315	4.51353	1.84979E-001	-4.96222E-006	0.00000E+000	1.84986E-001	0.00000E+000	9	...........	1467.52
	316	4.52782	1.83980E-001	-5.04626E-006	0.00000E+000	1.83986E-001	0.00000E+000	9	...........	1467.52
	317	4.5421	1.82984E-001	-5.09736E-006	0.00000E+000	1.82987E-001	0.00000E+000	9	...........	1467.52
	318	4.55638	1.81994E-001	-5.14203E-006	0.00000E+000	1.81987E-001	0.00000E+000	9	...........	1467.52
	319	4.57067	1.81000E-001	-5.22483E-006	0.00000E+000	1.80987E-001	0.00000E+000	9	...........	1467.52
	320	4.58495	1.79984E-001	-5.29230E-006	0.00000E+000	1.79988E-001	0.00000E+000	9	...........	1467.52
	321	4.59923	1.78976E-001	-5.34200E-006	0.00000E+000	1.78988E-001	0.00000E+000	9	...........	1467.52
	322	4.61352	1.77977E-001	-5.39739E-006	0.00000E+000	1.77988E-001	0.00000E+000	9	...........	1467.52
	323	4.6278	1.76979E-001	-5.48506E-006	0.00000E+000	1.76989E-001	0.00000E+000	9	...........	1467.52
	324	4.64208	1.75998E-001	-5.53655E-006	0.00000E+000	1.75989E-001	0.00000E+000	9	...........	1467.52
	325	4.65637	1.74992E-001	-5.58961E-006	0.00000E+000	1.74989E-001	0.00000E+000	9	...........	1467.52
	326	4.67065	1.73991E-001	-5.67240E-006	0.00000E+000	1.73990E-001	0.00000E+000	9	...........	1467.52
	327	4.68493	1.73000E-001	-5.73656E-006	0.00000E+000	1.72990E-001	0.00000E+000	9	...........	1467.52
	328	4.69922	1.71991E-001	-5.78236E-006	0.00000E+000	1.71990E-001	0.00000E+000	9	...........	1467.52
	329	4.7135	1.70993E-001	-5.85226E-006	0.00000E+000	1.70991E-001	0.00000E+000	9	...........	1467.52
	330	4.72778	1.70004E-001	-5.93014E-006	0.00000E+000	1.69991E-001	0.00000E+000	9	...........	1467.52
	331	4.74207	1.69004E-001	-5.98654E-006	0.00000E+000	1.68991E-001	0.00000E+000	9	...........	1467.52
	332	4.75635	1.68009E-001	-6.04521E-006	0.00000E+000	1.67992E-001	0.00000E+000	9	...........	1467.52
	333	4.77063	1.67006E-001	-6.12212E-006	0.00000E+000	1.66992E-001	0.00000E+000	9	...........	1467.52
	334	4.78492	1.65970E-001	-6.20479E-006	0.00000E+000	1.65993E-001	0.00000E+000	9	...........	1467.52
	335	4.7992	1.64967E-001	-6.25516E-006	0.00000E+000	1.64993E-001	0.00000E+000	9	...........	1467.52
	336	4.81348	1.63983E-001	-6.31737E-006	0.00000E+000	1.63993E-001	0.00000E+000	9	...........	1467.52
	337	4.82777	1.62980E-001	-6.40469E-006	0.00000E+000	1.62994E-001	0.00000E+000	9	...........	1467.52
	338	4.84205	1.61979E-001	-6.46386E-006	0.00000E+000	1.61994E-001	0.00000E+000	9	...........	1467.52
	339	4.85633	1.60989E-001	-6.51024E-006	0.00000E+000	1.60994E-001	0.00000E+000	9	...........	1467.52
	340	4.87062	1.59993E-001	-6.59896E-006	0.00000E+000	1.59995E-001	0.00000E+000	9	...........	1467.52
	341	4.8849	1.58979E-001	-6.67115E-006	0.00000E+000	1.58995E-001	0.00000E+000	9	...........	1467.52
	342	4.89918	1.57998E-001	-6.72951E-006	0.00000E+000	1.57995E-001	0.00000E+000	9	...........	1467.52
	343	4.91347	1.57003E-001	-6.79733E-006	0.00000E+000	1.56996E-001	0.00000E+000	9	...........	1467.52
	344	4.92775	1.55999E-001	-6.88617E-006	0.00000E+000	1.55996E-001	0.00000E+000	9	...........	1467.52
	345	4.94203	1.54997E-001	-6.94651E-006	0.00000E+000	1.54996E-001	0.00000E+000	9	...........	1467.52
	346	4.95632	1.53984E-001	-6.99773E-006	0.00000E+000	1.53997E-001	0.00000E+000	9	...........	1467.52
	347	4.9706	1.52973E-001	-7.08926E-006	0.00000E+000	1.52997E-001	0.00000E+000	9	...........	1467.52
	348	4.98488	1.51979E-001	-7.15892E-006	0.00000E+000	1.51997E-001	0.00000E+000	9	...........	1467.52
	349	4.99917	1.50963E-001	-7.22803E-006	0.00000E+000	1.50985E-001	0.00000E+000	9	...........	1467.52
	350	5.01345	1.49966E-001	-7.28435E-006	0.00000E+000	1.49986E-001	0.00000E+000	9	...........	1467.52
	351	5.02773	1.48973E-001	-7.37654E-006	0.00000E+000	1.48986E-001	0.00000E+000	9	...........	1467.52
	352	5.04202	1.47986E-001	-7.42960E-006	0.00000E+000	1.47986E-001	0.00000E+000	9	...........	1467.52
	353	5.0563	1.46988E-001	-7.49461E-006	0.00000E+000	1.46987E-001	0.00000E+000	9	...........	1467.52
	354	5.07058	1.45986E-001	-7.58571E-006	0.00000E+000	1.45987E-001	0.00000E+000	9	...........	1467.52
	355	5.08487	1.44991E-001	-7.65689E-006	0.00000E+000	1.44987E-001	0.00000E+000	9	...........	1467.52
	356	5.09915	1.43989E-001	-7.72690E-006	0.00000E+000	1.43988E-001	0.00000E+000	9	...........	1467.52
	357	5.11343	1.42999E-001	-7.79390E-006	0.00000E+000	1.42988E-001	0.00000E+000	9	...........	1467.52
	358	5.12772	1.42007E-001	-7.88294E-006	0.00000E+000	1.41988E-001	0.00000E+000	9	...........	1467.52
	359	5.142	1.41009E-001	-7.95688E-006	0.00000E+000	1.40989E-001	0.00000E+000	9	...........	1467.52
	360	5.15628	1.39984E-001	-8.01457E-006	0.00000E+000	1.39989E-001	0.00000E+000	9	...........	1467.52
	361	5.17057	1.38988E-001	-8.10255E-006	0.00000E+000	1.38989E-001	0.00000E+000	9	...........	1467.52
	362	5.18485	1.37993E-001	-8.18663E-006	0.00000E+000	1.37990E-001	0.00000E+000	9	...........	1467.52
	363	5.19913	1.36983E-001	-8.25259E-006	0.00000E+000	1.36990E-001	0.00000E+000	9	...........	1467.52
	364	5.21342	1.35992E-001	-8.31764E-006	0.00000E+000	1.35991E-001	0.00000E+000	9	...........	1467.52
	365	5.2277	1.34991E-001	-8.41669E-006	0.00000E+000	1.34991E-001	0.00000E+000	9	...........	1467.52
	366	5.24198	1.33989E-001	-8.49684E-006	0.00000E+000	1.33991E-001	0.00000E+000	9	...........	1467.52
	367	5.25627	1.32995E-001	-8.55617E-006	0.00000E+000	1.32992E-001	0.00000E+000	9	...........	1467.52
	368	5.27055	1.31997E-001	-8.65100E-006	0.00000E+000	1.31992E-001	0.00000E+000	9	...........	1467.52
	369	5.28483	1.30993E-001	-8.74035E-006	0.00000E+000	1.30992E-001	0.00000E+000	9	...........	1467.52
	370	5.29912	1.29988E-001	-8.80954E-006	0.00000E+000	1.29993E-001	0.00000E+000	9	...........	1467.52
	371	5.3134	1.28991E-001	-8.88122E-006	0.00000E+000	1.28993E-001	0.00000E+000	9	...........	1467.52
	372	5.32768	1.27991E-001	-8.97926E-006	0.00000E+000	1.27993E-001	0.00000E+000	9	...........	1467.52
	373	5.34197	1.26979E-001	-9.06045E-006	0.00000E+000	1.26994E-001	0.00000E+000	9	...........	1467.52
	374	5.35625	1.25988E-001	-9.12099E-006	0.00000E+000	1.25994E-001	0.00000E+000	9	...........	1467.52
[...]
	1007	14.3976	2.92949E-001	5.16430E-007	0.00000E+000	2.92973E-001	0.00000E+000	9	...........	1467.70
	1008	14.4119	2.91954E-001	4.24398E-007	0.00000E+000	2.91974E-001	0.00000E+000	9	...........	1467.70
	1009	14.4262	2.90953E-001	3.52245E-007	0.00000E+000	2.90974E-001	0.00000E+000	9	...........	1467.70
	1010	14.4405	2.89969E-001	2.82860E-007	0.00000E+000	2.89974E-001	0.00000E+000	9	...........	1467.70
	1011	14.4547	2.88964E-001	1.82564E-007	0.00000E+000	2.88962E-001	0.00000E+000	9	...........	1467.70
	1012	14.469	2.87967E-001	1.27211E-007	0.00000E+000	2.87962E-001	0.00000E+000	9	...........	1467.70
	1013	14.4833	2.86953E-001	7.83301E-008	0.00000E+000	2.86963E-001	0.00000E+000	9	...........	1467.70
	1014	14.4976	2.85960E-001	-3.60654E-009	0.00000E+000	2.85963E-001	0.00000E+000	9	...........	1467.62
	1015	14.5119	2.84964E-001	-6.88986E-008	0.00000E+000	2.84963E-001	0.00000E+000	9	...........	1467.52
	1016	14.5262	2.83969E-001	-1.17663E-007	0.00000E+000	2.83964E-001	0.00000E+000	9	...........	1467.52
	1017	14.5404	2.82953E-001	-1.68571E-007	0.00000E+000	2.82964E-001	0.00000E+000	9	...........	1467.52
	1018	14.5547	2.81955E-001	-2.50859E-007	0.00000E+000	2.81965E-001	0.00000E+000	9	...........	1467.52
	1019	14.569	2.80943E-001	-3.02547E-007	0.00000E+000	2.80965E-001	0.00000E+000	9	...........	1467.52
	1020	14.5833	2.79948E-001	-3.38565E-007	0.00000E+000	2.79965E-001	0.00000E+000	9	...........	1467.52
	1021	14.5976	2.78946E-001	-4.05689E-007	0.00000E+000	2.78966E-001	0.00000E+000	9	...........	1467.52
	1022	14.6119	2.77952E-001	-4.70162E-007	0.00000E+000	2.77966E-001	0.00000E+000	9	...........	1467.52
	1023	14.6261	2.76953E-001	-5.10312E-007	0.00000E+000	2.76966E-001	0.00000E+000	9	...........	1467.52
	1024	14.6404	2.75957E-001	-5.50735E-007	0.00000E+000	2.75967E-001	0.00000E+000	9	...........	1467.52
	1025	14.6547	2.74954E-001	-6.26590E-007	0.00000E+000	2.74967E-001	0.00000E+000	9	...........	1467.52
	1026	14.669	2.73949E-001	-6.75783E-007	0.00000E+000	2.73967E-001	0.00000E+000	9	...........	1467.52
	1027	14.6833	2.72954E-001	-7.07591E-007	0.00000E+000	2.72968E-001	0.00000E+000	9	...........	1467.52
	1028	14.6976	2.71960E-001	-7.67855E-007	0.00000E+000	2.71968E-001	0.00000E+000	9	...........	1467.52
	1029	14.7118	2.70962E-001	-8.26364E-007	0.00000E+000	2.70968E-001	0.00000E+000	9	...........	1467.52
	1030	14.7261	2.69966E-001	-8.58679E-007	0.00000E+000	2.69969E-001	0.00000E+000	9	...........	1467.52
	1031	14.7404	2.68967E-001	-8.97660E-007	0.00000E+000	2.68969E-001	0.00000E+000	9	...........	1467.52
	1032	14.7547	2.67939E-001	-9.68682E-007	0.00000E+000	2.67969E-001	0.00000E+000	9	...........	1467.52
	1033	14.769	2.66941E-001	-1.01144E-006	0.00000E+000	2.66970E-001	0.00000E+000	9	...........	1467.52
	1034	14.7833	2.65952E-001	-1.04068E-006	0.00000E+000	2.65970E-001	0.00000E+000	9	...........	1467.52
	1035	14.7975	2.64951E-001	-1.10192E-006	0.00000E+000	2.64970E-001	0.00000E+000	9	...........	1467.52
	1036	14.8118	2.63956E-001	-1.15060E-006	0.00000E+000	2.63971E-001	0.00000E+000	9	...........	1467.52
	1037	14.8261	2.62957E-001	-1.17707E-006	0.00000E+000	2.62971E-001	0.00000E+000	9	...........	1467.52
	1038	14.8404	2.61958E-001	-1.21851E-006	0.00000E+000	2.61972E-001	0.00000E+000	9	...........	1467.52
	1039	14.8547	2.60960E-001	-1.28290E-006	0.00000E+000	2.60972E-001	0.00000E+000	9	...........	1467.52
	1040	14.869	2.59962E-001	-1.31720E-006	0.00000E+000	2.59972E-001	0.00000E+000	9	...........	1467.52
	1041	14.8832	2.58966E-001	-1.34398E-006	0.00000E+000	2.58973E-001	0.00000E+000	9	...........	1467.52
	1042	14.8975	2.57973E-001	-1.40413E-006	0.00000E+000	2.57973E-001	0.00000E+000	9	...........	1467.52
	1043	14.9118	2.56976E-001	-1.45169E-006	0.00000E+000	2.56973E-001	0.00000E+000	9	...........	1467.52
	1044	14.9261	2.55967E-001	-1.48435E-006	0.00000E+000	2.55974E-001	0.00000E+000	9	...........	1467.52
	1045	14.9404	2.54952E-001	-1.51589E-006	0.00000E+000	2.54974E-001	0.00000E+000	9	...........	1467.52
	1046	14.9547	2.53955E-001	-1.58297E-006	0.00000E+000	2.53974E-001	0.00000E+000	9	...........	1467.52
	1047	14.9689	2.52962E-001	-1.62207E-006	0.00000E+000	2.52975E-001	0.00000E+000	9	...........	1467.52
	1048	14.9832	2.51964E-001	-1.64530E-006	0.00000E+000	2.51975E-001	0.00000E+000	9	...........	1467.52
	1049	14.9975	2.50970E-001	-1.70062E-006	0.00000E+000	2.50975E-001	0.00000E+000	9	...........	1467.52
	1050	15.0118	2.49974E-001	-1.75211E-006	0.00000E+000	2.49976E-001	0.00000E+000	9	...........	1467.52
	1051	15.0261	2.48967E-001	-1.78119E-006	0.00000E+000	2.48976E-001	0.00000E+000	9	...........	1467.52
	1052	15.0404	2.47970E-001	-1.81159E-006	0.00000E+000	2.47976E-001	0.00000E+000	9	...........	1467.52
	1053	15.0546	2.46974E-001	-1.87794E-006	0.00000E+000	2.46977E-001	0.00000E+000	9	...........	1467.52
	1054	15.0689	2.45974E-001	-1.91454E-006	0.00000E+000	2.45977E-001	0.00000E+000	9	...........	1467.52
	1055	15.0832	2.44978E-001	-1.93360E-006	0.00000E+000	2.44977E-001	0.00000E+000	9	...........	1467.52
	1056	15.0975	2.43982E-001	-1.99355E-006	0.00000E+000	2.43978E-001	0.00000E+000	9	...........	1467.52
	1057	15.1118	2.42964E-001	-2.04672E-006	0.00000E+000	2.42978E-001	0.00000E+000	9	...........	1467.52
	1058	15.1261	2.41962E-001	-2.07229E-006	0.00000E+000	2.41979E-001	0.00000E+000	9	...........	1467.52
	1059	15.1403	2.40959E-001	-2.11162E-006	0.00000E+000	2.40979E-001	0.00000E+000	9	...........	1467.52
	1060	15.1546	2.39973E-001	-2.17204E-006	0.00000E+000	2.39979E-001	0.00000E+000	9	...........	1467.52
	1061	15.1689	2.38967E-001	-2.21153E-006	0.00000E+000	2.38980E-001	0.00000E+000	9	...........	1467.52
	1062	15.1832	2.37971E-001	-2.23925E-006	0.00000E+000	2.37980E-001	0.00000E+000	9	...........	1467.52
	1063	15.1975	2.36979E-001	-2.29253E-006	0.00000E+000	2.36980E-001	0.00000E+000	9	...........	1467.52
	1064	15.2118	2.35973E-001	-2.34247E-006	0.00000E+000	2.35981E-001	0.00000E+000	9	...........	1467.52
	1065	15.226	2.34974E-001	-2.36878E-006	0.00000E+000	2.34981E-001	0.00000E+000	9	...........	1467.52
	1066	15.2403	2.33984E-001	-2.40031E-006	0.00000E+000	2.33981E-001	0.00000E+000	9	...........	1467.52
	1067	15.2546	2.32975E-001	-2.46576E-006	0.00000E+000	2.32982E-001	0.00000E+000	9	...........	1467.52
	1068	15.2689	2.31985E-001	-2.50946E-006	0.00000E+000	2.31982E-001	0.00000E+000	9	...........	1467.52
	1069	15.2832	2.30976E-001	-2.53265E-006	0.00000E+000	2.30982E-001	0.00000E+000	9	...........	1467.52
	1070	15.2975	2.29964E-001	-2.59011E-006	0.00000E+000	2.29983E-001	0.00000E+000	9	...........	1467.52
	1071	15.3117	2.28967E-001	-2.64811E-006	0.00000E+000	2.28983E-001	0.00000E+000	9	...........	1467.52
	1072	15.326	2.27964E-001	-2.67867E-006	0.00000E+000	2.27983E-001	0.00000E+000	9	...........	1467.52
	1073	15.3403	2.26957E-001	-2.71765E-006	0.00000E+000	2.26984E-001	0.00000E+000	9	...........	1467.52
	1074	15.3546	2.25961E-001	-2.78033E-006	0.00000E+000	2.25984E-001	0.00000E+000	9	...........	1467.52
	1075	15.3689	2.24970E-001	-2.82703E-006	0.00000E+000	2.24984E-001	0.00000E+000	9	...........	1467.52
	1076	15.3832	2.23983E-001	-2.85241E-006	0.00000E+000	2.23985E-001	0.00000E+000	9	...........	1467.52
	1077	15.3974	2.22979E-001	-2.90624E-006	0.00000E+000	2.22985E-001	0.00000E+000	9	...........	1467.52
	1078	15.4117	2.21980E-001	-2.96810E-006	0.00000E+000	2.21985E-001	0.00000E+000	9	...........	1467.52
	1079	15.426	2.20981E-001	-2.99636E-006	0.00000E+000	2.20986E-001	0.00000E+000	9	...........	1467.52
	1080	15.4403	2.19954E-001	-3.05132E-006	0.00000E+000	2.19974E-001	0.00000E+000	9	...........	1467.52
	1081	15.4546	2.18956E-001	-3.10913E-006	0.00000E+000	2.18974E-001	0.00000E+000	9	...........	1467.52
	1082	15.4689	2.17971E-001	-3.15349E-006	0.00000E+000	2.17974E-001	0.00000E+000	9	...........	1467.52
	1083	15.4831	2.16945E-001	-3.18658E-006	0.00000E+000	2.16975E-001	0.00000E+000	9	...........	1467.52
	1084	15.4974	2.15949E-001	-3.24369E-006	0.00000E+000	2.15975E-001	0.00000E+000	9	...........	1467.52
	1085	15.5117	2.14952E-001	-3.30602E-006	0.00000E+000	2.14975E-001	0.00000E+000	9	...........	1467.52
	1086	15.526	2.13949E-001	-3.34364E-006	0.00000E+000	2.13976E-001	0.00000E+000	9	...........	1467.52
	1087	15.5403	2.12958E-001	-3.37829E-006	0.00000E+000	2.12976E-001	0.00000E+000	9	...........	1467.52
	1088	15.5546	2.11968E-001	-3.44354E-006	0.00000E+000	2.11976E-001	0.00000E+000	9	...........	1467.52
	1089	15.5688	2.10963E-001	-3.49632E-006	0.00000E+000	2.10977E-001	0.00000E+000	9	...........	1467.52
	1090	15.5831	2.09966E-001	-3.53133E-006	0.00000E+000	2.09977E-001	0.00000E+000	9	...........	1467.52
	1091	15.5974	2.08975E-001	-3.59494E-006	0.00000E+000	2.08978E-001	0.00000E+000	9	...........	1467.52
	1092	15.6117	2.07980E-001	-3.65392E-006	0.00000E+000	2.07978E-001	0.00000E+000	9	...........	1467.52
	1093	15.626	2.06974E-001	-3.69961E-006	0.00000E+000	2.06978E-001	0.00000E+000	9	...........	1467.52
	1094	15.6403	2.05985E-001	-3.74412E-006	0.00000E+000	2.05979E-001	0.00000E+000	9	...........	1467.52
	1095	15.6545	2.04980E-001	-3.81315E-006	0.00000E+000	2.04979E-001	0.00000E+000	9	...........	1467.52
	1096	15.6688	2.03968E-001	-3.86699E-006	0.00000E+000	2.03979E-001	0.00000E+000	9	...........	1467.52
	1097	15.6831	2.02963E-001	-3.90219E-006	0.00000E+000	2.02980E-001	0.00000E+000	9	...........	1467.52
	1098	15.6974	2.01965E-001	-3.96678E-006	0.00000E+000	2.01980E-001	0.00000E+000	9	...........	1467.52
	1099	15.7117	2.00965E-001	-4.03246E-006	0.00000E+000	2.00980E-001	0.00000E+000	9	...........	1467.52
	1100	15.726	1.99976E-001	-4.08095E-006	0.00000E+000	1.99981E-001	0.00000E+000	9	...........	1467.52
	1101	15.7402	1.98984E-001	-4.11650E-006	0.00000E+000	1.98981E-001	0.00000E+000	9	...........	1467.52
	1102	15.7545	1.97978E-001	-4.19602E-006	0.00000E+000	1.97981E-001	0.00000E+000	9	...........	1467.52
	1103	15.7688	1.96977E-001	-4.25769E-006	0.00000E+000	1.96982E-001	0.00000E+000	9	...........	1467.52
	1104	15.7831	1.95985E-001	-4.28821E-006	0.00000E+000	1.95982E-001	0.00000E+000	9	...........	1467.52
	1105	15.7974	1.94990E-001	-4.35966E-006	0.00000E+000	1.94982E-001	0.00000E+000	9	...........	1467.52
	1106	15.8117	1.93994E-001	-4.42678E-006	0.00000E+000	1.93983E-001	0.00000E+000	9	...........	1467.52
	1107	15.8259	1.93001E-001	-4.47563E-006	0.00000E+000	1.92983E-001	0.00000E+000	9	...........	1467.52
	1108	15.8402	1.92012E-001	-4.52447E-006	0.00000E+000	1.91983E-001	0.00000E+000	9	...........	1467.52
	1109	15.8545	1.90975E-001	-4.60286E-006	0.00000E+000	1.90984E-001	0.00000E+000	9	...........	1467.52
	1110	15.8688	1.89979E-001	-4.66234E-006	0.00000E+000	1.89984E-001	0.00000E+000	9	...........	1467.52
	1111	15.8831	1.88978E-001	-4.70175E-006	0.00000E+000	1.88984E-001	0.00000E+000	9	...........	1467.52
	1112	15.8974	1.87985E-001	-4.77589E-006	0.00000E+000	1.87985E-001	0.00000E+000	9	...........	1467.52
	1113	15.9116	1.86991E-001	-4.84399E-006	0.00000E+000	1.86985E-001	0.00000E+000	9	...........	1467.52
	1114	15.9259	1.85988E-001	-4.89077E-006	0.00000E+000	1.85986E-001	0.00000E+000	9	...........	1467.52
	1115	15.9402	1.84981E-001	-4.94440E-006	0.00000E+000	1.84986E-001	0.00000E+000	9	...........	1467.52
	1116	15.9545	1.83982E-001	-5.02751E-006	0.00000E+000	1.83986E-001	0.00000E+000	9	...........	1467.52
	1117	15.9688	1.82985E-001	-5.08563E-006	0.00000E+000	1.82987E-001	0.00000E+000	9	...........	1467.52
	1118	15.9831	1.81988E-001	-5.13486E-006	0.00000E+000	1.81987E-001	0.00000E+000	9	...........	1467.52
	1119	15.9973	1.80989E-001	-5.20429E-006	0.00000E+000	1.80987E-001	0.00000E+000	9	...........	1467.52
	1120	16.0116	1.79981E-001	-5.28131E-006	0.00000E+000	1.79988E-001	0.00000E+000	9	...........	1467.52
	1121	16.0259	1.78970E-001	-5.32777E-006	0.00000E+000	1.78988E-001	0.00000E+000	9	...........	1467.52
	1122	16.0402	1.77968E-001	-5.37837E-006	0.00000E+000	1.77988E-001	0.00000E+000	9	...........	1467.52
	1123	16.0545	1.76973E-001	-5.45980E-006	0.00000E+000	1.76989E-001	0.00000E+000	9	...........	1467.52
	1124	16.0688	1.75989E-001	-5.52716E-006	0.00000E+000	1.75989E-001	0.00000E+000	9	...........	1467.52
	1125	16.083	1.74981E-001	-5.57292E-006	0.00000E+000	1.74989E-001	0.00000E+000	9	...........	1467.52
	1126	16.0973	1.73984E-001	-5.65127E-006	0.00000E+000	1.73990E-001	0.00000E+000	9	...........	1467.52
	1127	16.1116	1.72991E-001	-5.72444E-006	0.00000E+000	1.72990E-001	0.00000E+000	9	...........	1467.52
	1128	16.1259	1.71982E-001	-5.77488E-006	0.00000E+000	1.71990E-001	0.00000E+000	9	...........	1467.52
	1129	16.1402	1.70984E-001	-5.83222E-006	0.00000E+000	1.70991E-001	0.00000E+000	9	...........	1467.52
	1130	16.1545	1.69997E-001	-5.91073E-006	0.00000E+000	1.69991E-001	0.00000E+000	9	...........	1467.52
	1131	16.1687	1.68995E-001	-5.98253E-006	0.00000E+000	1.68991E-001	0.00000E+000	9	...........	1467.52
	1132	16.183	1.67997E-001	-6.02685E-006	0.00000E+000	1.67992E-001	0.00000E+000	9	...........	1467.52
	1133	16.1973	1.66998E-001	-6.10278E-006	0.00000E+000	1.66992E-001	0.00000E+000	9	...........	1467.52
	1134	16.2116	1.65968E-001	-6.18117E-006	0.00000E+000	1.65993E-001	0.00000E+000	9	...........	1467.52
	1135	16.2259	1.64973E-001	-6.23816E-006	0.00000E+000	1.64993E-001	0.00000E+000	9	...........	1467.52
	1136	16.2402	1.63981E-001	-6.29386E-006	0.00000E+000	1.63993E-001	0.00000E+000	9	...........	1467.52
	1137	16.2544	1.62975E-001	-6.37888E-006	0.00000E+000	1.62994E-001	0.00000E+000	9	...........	1467.52
	1138	16.2687	1.61977E-001	-6.45415E-006	0.00000E+000	1.61994E-001	0.00000E+000	9	...........	1467.52
	1139	16.283	1.60985E-001	-6.49450E-006	0.00000E+000	1.60994E-001	0.00000E+000	9	...........	1467.52
	1140	16.2973	1.59986E-001	-6.57592E-006	0.00000E+000	1.59995E-001	0.00000E+000	9	...........	1467.52
	1141	16.3116	1.58982E-001	-6.65506E-006	0.00000E+000	1.58995E-001	0.00000E+000	9	...........	1467.52
	1142	16.3259	1.57993E-001	-6.71688E-006	0.00000E+000	1.57995E-001	0.00000E+000	9	...........	1467.52
	1143	16.3401	1.57005E-001	-6.77246E-006	0.00000E+000	1.56996E-001	0.00000E+000	9	...........	1467.52
	1144	16.3544	1.55997E-001	-6.85713E-006	0.00000E+000	1.55996E-001	0.00000E+000	9	...........	1467.52
	1145	16.3687	1.54999E-001	-6.93088E-006	0.00000E+000	1.54996E-001	0.00000E+000	9	...........	1467.52
	1146	16.383	1.53985E-001	-6.97996E-006	0.00000E+000	1.53997E-001	0.00000E+000	9	...........	1467.52
	1147	16.3973	1.52978E-001	-7.05776E-006	0.00000E+000	1.52997E-001	0.00000E+000	9	...........	1467.52
	1148	16.4116	1.51984E-001	-7.14208E-006	0.00000E+000	1.51997E-001	0.00000E+000	9	...........	1467.52
	1149	16.4258	1.50973E-001	-7.21107E-006	0.00000E+000	1.50985E-001	0.00000E+000	9	...........	1467.52
	1150	16.4401	1.49975E-001	-7.26950E-006	0.00000E+000	1.49986E-001	0.00000E+000	9	...........	1467.52
	1151	16.4544	1.48979E-001	-7.35206E-006	0.00000E+000	1.48986E-001	0.00000E+000	9	...........	1467.52
	1152	16.4687	1.47989E-001	-7.42652E-006	0.00000E+000	1.47986E-001	0.00000E+000	9	...........	1467.52
	1153	16.483	1.46987E-001	-7.47688E-006	0.00000E+000	1.46987E-001	0.00000E+000	9	...........	1467.52
	1154	16.4973	1.45979E-001	-7.56104E-006	0.00000E+000	1.45987E-001	0.00000E+000	9	...........	1467.52
	1155	16.5115	1.44988E-001	-7.64913E-006	0.00000E+000	1.44987E-001	0.00000E+000	9	...........	1467.52
	1156	16.5258	1.43987E-001	-7.70250E-006	0.00000E+000	1.43988E-001	0.00000E+000	9	...........	1467.52
	1157	16.5401	1.42995E-001	-7.77414E-006	0.00000E+000	1.42988E-001	0.00000E+000	9	...........	1467.52
	1158	16.5544	1.41996E-001	-7.86052E-006	0.00000E+000	1.41988E-001	0.00000E+000	9	...........	1467.52
	1159	16.5687	1.41004E-001	-7.94160E-006	0.00000E+000	1.40989E-001	0.00000E+000	9	...........	1467.52
	1160	16.583	1.39983E-001	-7.99754E-006	0.00000E+000	1.39989E-001	0.00000E+000	9	...........	1467.52
	1161	16.5972	1.38983E-001	-8.08314E-006	0.00000E+000	1.38989E-001	0.00000E+000	9	...........	1467.52
	1162	16.6115	1.37989E-001	-8.16995E-006	0.00000E+000	1.37990E-001	0.00000E+000	9	...........	1467.52
	1163	16.6258	1.36986E-001	-8.22756E-006	0.00000E+000	1.36990E-001	0.00000E+000	9	...........	1467.52
	1164	16.6401	1.35998E-001	-8.29784E-006	0.00000E+000	1.35991E-001	0.00000E+000	9	...........	1467.52
	1165	16.6544	1.34998E-001	-8.39401E-006	0.00000E+000	1.34991E-001	0.00000E+000	9	...........	1467.52
	1166	16.6687	1.33998E-001	-8.47824E-006	0.00000E+000	1.33991E-001	0.00000E+000	9	...........	1467.52
	1167	16.6829	1.33006E-001	-8.53087E-006	0.00000E+000	1.32992E-001	0.00000E+000	9	...........	1467.52
	1168	16.6972	1.32013E-001	-8.62384E-006	0.00000E+000	1.31992E-001	0.00000E+000	9	...........	1467.52
	1169	16.7115	1.31009E-001	-8.72226E-006	0.00000E+000	1.30992E-001	0.00000E+000	9	...........	1467.52
	1170	16.7258	1.29999E-001	-8.78206E-006	0.00000E+000	1.29993E-001	0.00000E+000	9	...........	1467.52
	1171	16.7401	1.28999E-001	-8.85998E-006	0.00000E+000	1.28993E-001	0.00000E+000	9	...........	1467.52
	1172	16.7544	1.27998E-001	-8.95681E-006	0.00000E+000	1.27993E-001	0.00000E+000	9	...........	1467.52
	1173	16.7686	1.26982E-001	-9.05297E-006	0.00000E+000	1.26994E-001	0.00000E+000	9	...........	1467.52
	1174	16.7829	1.25986E-001	-9.10813E-006	0.00000E+000	1.25994E-001	0.00000E+000	9	...........	1467.52
	1175	16.7972	1.24991E-001	-9.21002E-006	0.00000E+000	1.24994E-001	0.00000E+000	9	...........	1467.52
	1176	16.8115	1.23983E-001	-9.30361E-006	0.00000E+000	1.23995E-001	0.00000E+000	9	...........	1467.52
	1177	16.8258	1.22994E-001	-9.37284E-006	0.00000E+000	1.22995E-001	0.00000E+000	9	...........	1467.52
	1178	16.84	1.22005E-001	-9.45158E-006	0.00000E+000	1.21995E-001	0.00000E+000	9	...........	1467.52
	1179	16.8543	1.20995E-001	-9.54802E-006	0.00000E+000	1.20996E-001	0.00000E+000	9	...........	1467.52
	1180	16.8686	1.20002E-001	-9.64438E-006	0.00000E+000	1.19996E-001	0.00000E+000	9	...........	1467.52
	1181	16.8829	1.19002E-001	-9.70885E-006	0.00000E+000	1.18996E-001	0.00000E+000	9	...........	1467.52
	1182	16.8972	1.17997E-001	-9.79956E-006	0.00000E+000	1.17997E-001	0.00000E+000	9	...........	1467.52
	1183	16.9115	1.16998E-001	-9.90859E-006	0.00000E+000	1.16997E-001	0.00000E+000	9	...........	1467.52
	1184	16.9258	1.16012E-001	-9.98156E-006	0.00000E+000	1.15997E-001	0.00000E+000	9	...........	1467.52
	1185	16.94	1.14995E-001	-1.00642E-005	0.00000E+000	1.14998E-001	0.00000E+000	9	...........	1467.52
	1186	16.9543	1.13984E-001	-1.01773E-005	0.00000E+000	1.13998E-001	0.00000E+000	9	...........	1467.52
	1187	16.9686	1.12988E-001	-1.02693E-005	0.00000E+000	1.12999E-001	0.00000E+000	9	...........	1467.52
	1188	16.9829	1.11990E-001	-1.03405E-005	0.00000E+000	1.11999E-001	0.00000E+000	9	...........	1467.52
	1189	16.9972	1.10993E-001	-1.04494E-005	0.00000E+000	1.10999E-001	0.00000E+000	9	...........	1467.52
	1190	17.0114	1.10001E-001	-1.05476E-005	0.00000E+000	1.10000E-001	0.00000E+000	9	...........	1467.52
	1191	17.0257	1.09007E-001	-1.06357E-005	0.00000E+000	1.09000E-001	0.00000E+000	9	...........	1467.52
	1192	17.04	1.07992E-001	-1.07177E-005	0.00000E+000	1.08000E-001	0.00000E+000	9	...........	1467.52
	1193	17.0543	1.06994E-001	-1.08390E-005	0.00000E+000	1.07001E-001	0.00000E+000	9	...........	1467.52
	1194	17.0686	1.05991E-001	-1.09342E-005	0.00000E+000	1.06001E-001	0.00000E+000	9	...........	1467.52
	1195	17.0829	1.04989E-001	-1.10150E-005	0.00000E+000	1.05001E-001	0.00000E+000	9	...........	1467.52
	1196	17.0972	1.04011E-001	-1.11248E-005	0.00000E+000	1.04002E-001	0.00000E+000	9	...........	1467.52
	1197	17.1114	1.03016E-001	-1.12339E-005	0.00000E+000	1.03002E-001	0.00000E+000	9	...........	1467.52
	1198	17.1257	1.01998E-001	-1.13185E-005	0.00000E+000	1.02002E-001	0.00000E+000	9	...........	1467.52
	1199	17.14	1.00999E-001	-1.14106E-005	0.00000E+000	1.01003E-001	0.00000E+000	9	...........	1467.52
	1200	17.1543	1.00001E-001	-1.15261E-005	0.00000E+000	1.00003E-001	0.00000E+000	9	...........	1467.52
CURVE4	TABLE
	Pt	T	Vf	Im	Vu	Sig	Ach	IERange	Over	Temp
	#	s	V vs. Ref.	A	V	V	V	#	bits	deg C
	1201	17.1686	9.99870E-002	-1.05374E-005	0.00000E+000	1.00003E-001	0.00000E+000	9	...........	1467.52